90 Deg Fixed Reg 15 13-Apr-2018
Time(s) LoadCell(N)
0.000000 -0.381634
0.020000 -0.376578
0.040000 -0.398242
0.060000 -0.413967
0.080000 -0.426627
0.100000 -0.461173
0.120000 -0.420045
0.140000 -0.456454
0.160000 -0.445727
0.180000 -0.404333
0.200000 -0.432802
0.220000 -0.416082
0.240000 -0.416096
0.260000 -0.396505
0.280000 -0.389840
0.300000 -0.413295
0.320000 -0.389952
0.340000 -0.370081
0.360000 -0.376565
0.380000 -0.388201
0.400000 -0.366510
0.420000 -0.344679
0.440000 -0.359340
0.460000 -0.360097
0.480000 -0.341164
0.500000 -0.338587
0.520000 -0.320173
0.540000 -0.301128
0.560000 -0.303439
0.580000 -0.253111
0.600000 -0.252803
0.620000 -0.243322
0.640000 -0.224054
0.660000 -0.247888
0.680000 -0.215652
0.700000 -0.225762
0.720000 -0.226266
0.740000 -0.205555
0.760000 -0.215428
0.780000 -0.181806
0.800000 -0.202881
0.820000 -0.174286
0.840000 -0.190572
0.860000 -0.184858
0.880000 -0.163069
0.900000 -0.180349
0.920000 -0.160213
0.940000 -0.143885
0.960000 -0.148660
0.980000 -0.141980
1.000000 -0.121381
1.020000 -0.119771
1.040000 -0.143254
1.060000 -0.128355
1.080000 -0.134838
1.100000 -0.125568
1.120000 -0.161585
1.140000 -0.158756
1.160000 -0.161627
1.180000 -0.171527
1.200000 -0.184200
1.220000 -0.235158
1.240000 -0.185068
1.260000 -0.249764
1.280000 -0.254217
1.300000 -0.281426
1.320000 -0.278849
1.340000 -0.284226
1.360000 -0.318661
1.380000 -0.306184
1.400000 -0.304531
1.420000 -0.318184
1.440000 -0.321713
1.460000 -0.327609
1.480000 -0.340618
1.500000 -0.357128
1.520000 -0.332580
1.540000 -0.351442
1.560000 -0.347228
1.580000 -0.365068
1.600000 -0.341276
1.620000 -0.342452
1.640000 -0.371649
1.660000 -0.354845
1.680000 -0.368387
1.700000 -0.332272
1.720000 -0.380233
1.740000 -0.360419
1.760000 -0.325942
1.780000 -0.362841
1.800000 -0.349636
1.820000 -0.333280
1.840000 -0.351751
1.860000 -0.353809
1.880000 -0.326278
1.900000 -0.355405
1.920000 -0.356750
1.940000 -0.344245
1.960000 -0.376495
1.980000 -0.331068
2.000000 -0.363990
2.020000 -0.402429
2.040000 -0.325774
2.060000 -0.395105
2.080000 -0.412861
2.100000 -0.399586
2.120000 -0.426445
2.140000 -0.422874
2.160000 -0.460151
2.180000 -0.469183
2.200000 -0.447016
2.220000 -0.516500
2.240000 -0.515394
2.260000 -0.514988
2.280000 -0.574488
2.300000 -0.566856
2.320000 -0.624284
2.340000 -0.626035
2.360000 -0.619719
2.380000 -0.696345
2.400000 -0.666686
2.420000 -0.738061
2.440000 -0.745665
2.460000 -0.763254
2.480000 -0.813778
2.500000 -0.807490
2.520000 -0.842947
2.540000 -0.867635
2.560000 -0.880546
2.580000 -0.923648
2.600000 -0.945647
2.620000 -0.938996
2.640000 -1.009783
2.660000 -1.006730
2.680000 -1.012191
2.700000 -1.070725
2.720000 -1.034009
2.740000 -1.093299
2.760000 -1.067155
2.780000 -1.076411
2.800000 -1.104712
2.820000 -1.103619
2.840000 -1.081816
2.860000 -1.089126
2.880000 -1.101785
2.900000 -1.050771
2.920000 -1.080108
2.940000 -1.056190
2.960000 -1.032342
2.980000 -1.032104
3.000000 -1.002585
3.020000 -1.013466
3.040000 -0.966092
3.060000 -0.965098
3.080000 -0.943407
3.100000 -0.947888
3.120000 -0.894171
3.140000 -0.897154
3.160000 -0.885181
3.180000 -0.829573
3.200000 -0.866304
3.220000 -0.820737
3.240000 -0.826381
3.260000 -0.794243
3.280000 -0.763141
3.300000 -0.793025
3.320000 -0.751869
3.340000 -0.726425
3.360000 -0.756616
3.380000 -0.744797
3.400000 -0.705000
3.420000 -0.738636
3.440000 -0.706568
3.460000 -0.737711
3.480000 -0.702073
3.500000 -0.657528
3.520000 -0.707282
3.540000 -0.631160
3.560000 -0.618417
3.580000 -0.604007
3.600000 -0.542630
3.620000 -0.518363
3.640000 -0.472404
3.660000 -0.429077
3.680000 -0.369339
3.700000 -0.321139
3.720000 -0.235117
3.740000 -0.202783
3.760000 -0.105851
3.780000 -0.030989
3.800000 0.007366
3.820000 0.108610
3.840000 0.170449
3.860000 0.287587
3.880000 0.364256
3.900000 0.449704
3.920000 0.572164
3.940000 0.664670
3.960000 0.783208
3.980000 0.891678
4.000000 0.997992
4.020000 1.158120
4.040000 1.295045
4.060000 1.391332
4.080000 1.594801
4.100000 1.719417
4.120000 1.877697
4.140000 2.066127
4.160000 2.194804
4.180000 2.379200
4.200000 2.531557
4.220000 2.697538
4.240000 2.861084
4.260000 3.043240
4.280000 3.217651
4.300000 3.382751
4.320000 3.602156
4.340000 3.766751
4.360000 3.986968
4.380000 4.179179
4.400000 4.380799
4.420000 4.613941
4.440000 4.812327
4.460000 5.008444
4.480000 5.146895
4.500000 5.356624
4.520000 5.536231
4.540000 5.678085
4.560000 5.808008
4.580000 5.918257
4.600000 6.070599
4.620000 6.199332
4.640000 6.312381
4.660000 6.423932
4.680000 6.576737
4.700000 6.773400
4.720000 6.876171
4.740000 7.054630
4.760000 7.234139
4.780000 7.452746
4.800000 7.658189
4.820000 7.756675
4.840000 7.945062
4.860000 8.128058
4.880000 8.226978
4.900000 8.120048
4.920000 8.012908
4.940000 7.962006
4.960000 7.792551
4.980000 7.502528
5.000000 7.176123
5.020000 7.063984
5.040000 6.921598
5.060000 6.722260
5.080000 6.510977
5.100000 6.463492
5.120000 6.535749
5.140000 6.388854
5.160000 6.239382
5.180000 6.261801
5.200000 6.238668
5.220000 6.184307
5.240000 6.056890
5.260000 5.993063
5.280000 6.049258
5.300000 6.008438
5.320000 5.880168
5.340000 5.818399
5.360000 5.694917
5.380000 5.594765
5.400000 5.443543
5.420000 5.220007
5.440000 5.061447
5.460000 4.911555
5.480000 4.755711
5.500000 4.570601
5.520000 4.297549
5.540000 4.119146
5.560000 3.885444
5.580000 3.575788
5.600000 3.163584
5.620000 2.810924
5.640000 2.528084
5.660000 2.157303
5.680000 1.735955
5.700000 1.404664
5.720000 1.080710
5.740000 0.682790
5.760000 0.256192
5.780000 -0.207460
5.800000 -0.594961
5.820000 -1.061833
5.840000 -1.574076
5.860000 -2.001389
5.880000 -2.437706
5.900000 -2.896722
5.920000 -3.297051
5.940000 -3.730707
5.960000 -4.160078
5.980000 -4.654243
6.000000 -5.106902
6.020000 -5.600394
6.040000 -6.121263
6.060000 -6.645788
6.080000 -7.103810
6.100000 -7.553920
6.120000 -8.135620
6.140000 -8.611468
6.160000 -9.103728
6.180000 -9.650588
6.200000 -10.219190
6.220000 -10.842710
6.240000 -11.279170
6.260000 -11.706760
6.280000 -12.600240
6.300000 -13.661240
6.320000 -13.944790
6.340000 -13.572790
6.360000 -14.038260
6.380000 -14.671840
6.400000 -14.841690
6.420000 -14.782820
6.440000 -14.839350
6.460000 -14.867260
6.480000 -14.352790
6.500000 -13.844360
6.520000 -13.540220
6.540000 -12.478610
6.560000 -11.253760
6.580000 -10.927880
6.600000 -10.594200
6.620000 -9.991024
6.640000 -9.618268
6.660000 -9.398779
6.680000 -8.918380
6.700000 -8.185416
6.720000 -7.685187
6.740000 -7.042867
6.760000 -5.861557
6.780000 -4.773075
6.800000 -4.149856
6.820000 -3.408167
6.840000 -2.487768
6.860000 -2.268335
6.880000 -2.004666
6.900000 -1.337644
6.920000 -1.045043
6.940000 -0.731284
6.960000 -0.152217
6.980000 0.199002
7.000000 0.417594
7.020000 0.539998
7.040000 0.744489
7.060000 0.835385
7.080000 0.689736
7.100000 0.931294
7.120000 1.238920
7.140000 1.236931
7.160000 1.514632
7.180000 1.832845
7.200000 1.805720
7.220000 1.808661
7.240000 1.856510
7.260000 1.843725
7.280000 1.853107
7.300000 1.899067
7.320000 2.154040
7.340000 2.310387
7.360000 2.316045
7.380000 2.534245
7.400000 2.577180
7.420000 2.353378
7.440000 2.445254
7.460000 2.550475
7.480000 2.499769
7.500000 2.699961
7.520000 3.084732
7.540000 3.317776
7.560000 3.498335
7.580000 3.782113
7.600000 3.995300
7.620000 4.074013
7.640000 4.216764
7.660000 4.563977
7.680000 4.883716
7.700000 5.172115
7.720000 5.753269
7.740000 6.200298
7.760000 6.442473
7.780000 6.855824
7.800000 7.201413
7.820000 7.413760
7.840000 7.700311
7.860000 8.164495
7.880000 8.721619
7.900000 9.186124
7.920000 9.658122
7.940000 10.358960
7.960000 10.841910
7.980000 11.113860
8.000000 11.580360
8.020000 12.054830
8.040000 12.433130
8.060000 12.919240
8.080000 13.589480
8.100000 14.167510
8.120000 14.737580
8.140000 15.380680
8.160000 15.874760
8.180000 16.305650
8.200000 16.729530
8.220000 17.124310
8.240000 17.398440
8.260000 17.370700
8.280000 17.489620
8.300000 17.620300
8.320000 17.473930
8.340000 17.277930
8.360000 17.325190
8.380000 17.368570
8.400000 17.325120
8.420000 17.282450
8.440000 17.637830
8.460000 17.958880
8.480000 17.518950
8.500000 17.172940
8.520000 16.669800
8.540000 15.861330
8.560000 14.772940
8.580000 13.783980
8.600000 13.044300
8.620000 12.196970
8.640000 11.462510
8.660000 10.878590
8.680000 10.470250
8.700000 10.157400
8.720000 9.553699
8.740000 8.933616
8.760000 8.448413
8.780000 7.942863
8.800000 7.296286
8.820000 6.749819
8.840000 6.262599
8.860000 5.935831
8.880000 5.679387
8.900000 5.341612
8.920000 4.939155
8.940000 4.465477
8.960000 4.168914
8.980000 3.754499
9.000000 3.111688
9.020000 2.637016
9.040000 2.450841
9.060000 2.296944
9.080000 1.909261
9.100000 1.560703
9.120000 1.332238
9.140000 1.092711
9.160000 0.642460
9.180000 -0.010236
9.200000 -0.295093
9.220000 -0.468245
9.240000 -0.859919
9.260000 -1.187415
9.280000 -1.386221
9.300000 -1.567075
9.320000 -1.849383
9.340000 -2.327906
9.360000 -2.748301
9.380000 -3.119852
9.400000 -3.529646
9.420000 -3.866455
9.440000 -4.153076
9.460000 -4.352064
9.480000 -4.442022
9.500000 -4.552172
9.520000 -4.723798
9.540000 -5.020319
9.560000 -5.272351
9.580000 -5.432116
9.600000 -5.703263
9.620000 -6.028253
9.640000 -6.123854
9.660000 -6.090862
9.680000 -6.127005
9.700000 -6.273410
9.720000 -6.408543
9.740000 -6.465634
9.760000 -6.660995
9.780000 -7.051815
9.800000 -7.297504
9.820000 -7.482153
9.840000 -7.625491
9.860000 -7.807941
9.880000 -7.989425
9.900000 -8.049681
9.920000 -8.210804
9.940000 -8.539113
9.960000 -8.831391
9.980000 -9.169012
10.000000 -9.553657
10.020000 -9.941410
10.040000 -10.333990
10.060000 -10.322200
10.080000 -10.049220
10.100000 -10.064880
10.120000 -10.056280
10.140000 -9.906905
10.160000 -9.712217
10.180000 -9.791280
10.200000 -10.065480
10.220000 -10.091370
10.240000 -9.870959
10.260000 -9.420261
10.280000 -8.890933
10.300000 -8.350473
10.320000 -7.791235
10.340000 -7.520312
10.360000 -7.594936
10.380000 -7.536388
10.400000 -7.225289
10.420000 -7.176865
10.440000 -7.205110
10.460000 -6.977065
10.480000 -6.443285
10.500000 -5.949288
10.520000 -5.453191
10.540000 -4.893322
10.560000 -4.507936
10.580000 -4.362777
10.600000 -4.220825
10.620000 -4.022089
10.640000 -3.998689
10.660000 -3.911252
10.680000 -3.468088
10.700000 -3.118830
10.720000 -2.904956
10.740000 -2.634789
10.760000 -2.293051
10.780000 -2.218427
10.800000 -2.246434
10.820000 -2.068815
10.840000 -1.840883
10.860000 -1.670518
10.880000 -1.383253
10.900000 -0.934080
10.920000 -0.677217
10.940000 -0.474476
10.960000 -0.213817
10.980000 -0.166766
11.000000 -0.172395
11.020000 -0.040428
11.040000 0.106146
11.060000 0.210457
11.080000 0.434987
11.100000 0.734967
11.120000 0.938464
11.140000 0.964846
11.160000 1.082614
11.180000 1.210031
11.200000 1.175162
11.220000 1.323738
11.240000 1.601201
11.260000 1.875569
11.280000 2.206804
11.300000 2.540967
11.320000 2.843986
11.340000 3.053728
11.360000 3.190695
11.380000 3.424145
11.400000 3.589399
11.420000 3.768908
11.440000 4.265705
11.460000 4.656987
11.480000 5.030737
11.500000 5.541244
11.520000 5.986047
11.540000 6.364992
11.560000 6.617305
11.580000 7.082819
11.600000 7.547198
11.620000 7.976219
11.640000 8.624113
11.660000 9.322629
11.680000 9.994707
11.700000 10.587010
11.720000 11.308660
11.740000 11.876680
11.760000 12.350350
11.780000 13.021940
11.800000 13.699940
11.820000 14.352640
11.840000 15.090760
11.860000 15.937060
11.880000 16.744020
11.900000 17.406770
11.920000 17.933710
11.940000 18.615430
11.960000 19.185620
11.980000 19.546610
12.000000 20.018810
12.020000 20.311320
12.040000 20.496690
12.060000 20.567530
12.080000 20.474520
12.100000 20.165980
12.120000 19.616340
12.140000 19.212860
12.160000 18.861130
12.180000 18.453440
12.200000 18.161530
12.220000 18.079410
12.240000 18.071820
12.260000 17.454790
12.280000 16.621340
12.300000 15.796120
12.320000 14.675950
12.340000 13.274670
12.360000 11.824180
12.380000 10.816090
12.400000 9.957752
12.420000 9.044942
12.440000 8.305971
12.460000 7.903556
12.480000 7.371694
12.500000 6.779128
12.520000 6.121572
12.540000 5.348236
12.560000 4.900744
12.580000 4.372327
12.600000 4.030085
12.620000 3.956511
12.640000 3.844008
12.660000 3.890261
12.680000 3.897487
12.700000 3.869508
12.720000 3.649935
12.740000 3.464209
12.760000 3.423977
12.780000 3.417157
12.800000 3.342954
12.820000 3.532629
12.840000 3.924541
12.860000 4.087485
12.880000 4.202536
12.900000 4.178030
12.920000 4.144282
12.940000 4.049689
12.960000 3.683487
12.980000 3.493938
13.000000 3.485522
13.020000 3.525319
13.040000 3.436426
13.060000 3.328922
13.080000 3.267910
13.100000 2.986078
13.120000 2.513646
13.140000 1.948022
13.160000 1.399076
13.180000 0.848618
13.200000 0.395203
13.220000 0.009200
13.240000 -0.428615
13.260000 -0.760929
13.280000 -1.203575
13.300000 -1.726545
13.320000 -2.416547
13.340000 -3.184954
13.360000 -3.857647
13.380000 -4.415569
13.400000 -4.988657
13.420000 -5.547854
13.440000 -5.825708
13.460000 -6.086633
13.480000 -6.510823
13.500000 -7.115544
13.520000 -7.634509
13.540000 -8.122373
13.560000 -8.813047
13.580000 -9.373363
13.600000 -9.857894
13.620000 -10.186590
13.640000 -10.417650
13.660000 -10.836760
13.680000 -11.122470
13.700000 -11.481280
13.720000 -11.990870
13.740000 -12.482530
13.760000 -13.018830
13.780000 -13.515560
13.800000 -13.865800
13.820000 -14.200340
13.840000 -14.451920
13.860000 -14.771720
13.880000 -15.238510
13.900000 -15.726090
13.920000 -15.971020
13.940000 -15.855170
13.960000 -15.992890
13.980000 -16.073510
14.000000 -15.818080
14.020000 -15.298230
14.040000 -14.961210
14.060000 -14.775080
14.080000 -14.518540
14.100000 -14.190030
14.120000 -13.942410
14.140000 -13.577360
14.160000 -12.898320
14.180000 -12.206610
14.200000 -11.368100
14.220000 -10.343980
14.240000 -9.584842
14.260000 -9.238805
14.280000 -8.805247
14.300000 -8.137398
14.320000 -7.874079
14.340000 -7.752236
14.360000 -7.276135
14.380000 -6.480016
14.400000 -5.826521
14.420000 -5.265392
14.440000 -4.407405
14.460000 -3.825650
14.480000 -3.633159
14.500000 -3.461212
14.520000 -3.264857
14.540000 -3.240449
14.560000 -3.153418
14.580000 -2.818626
14.600000 -2.470180
14.620000 -2.247120
14.640000 -1.982765
14.660000 -1.704896
14.680000 -1.788846
14.700000 -1.999401
14.720000 -1.995592
14.740000 -2.045080
14.760000 -2.179358
14.780000 -2.016625
14.800000 -1.688890
14.820000 -1.555172
14.840000 -1.533033
14.860000 -1.423078
14.880000 -1.462946
14.900000 -1.701815
14.920000 -1.787908
14.940000 -1.684857
14.960000 -1.571556
14.980000 -1.337111
15.000000 -0.870463
15.020000 -0.511403
15.040000 -0.295527
15.060000 -0.012351
15.080000 0.227051
15.100000 0.329555
15.120000 0.550262
15.140000 1.026209
15.160000 1.533047
15.180000 2.077175
15.200000 2.764601
15.220000 3.487440
15.240000 4.017258
15.260000 4.498917
15.280000 5.071795
15.300000 5.587175
15.320000 6.154171
15.340000 6.897904
15.360000 7.795688
15.380000 8.622573
15.400000 9.515553
15.420000 10.416450
15.440000 11.163220
15.460000 11.804870
15.480000 12.461260
15.500000 13.227220
15.520000 13.831640
15.540000 14.581200
15.560000 15.527910
15.580000 16.362880
15.600000 17.059680
15.620000 17.724340
15.640000 18.369310
15.660000 18.789370
15.680000 19.075180
15.700000 19.488160
15.720000 19.932420
15.740000 20.289230
15.760000 20.722240
15.780000 21.133850
15.800000 21.495040
15.820000 21.736910
15.840000 21.663640
15.860000 21.521690
15.880000 21.260990
15.900000 20.942080
15.920000 20.726280
15.940000 20.358070
15.960000 20.001750
15.980000 19.689600
16.000000 19.313260
16.020000 18.935530
16.040000 18.471100
16.060000 18.130000
16.080000 17.807180
16.100000 17.493290
16.120000 17.329220
16.140000 17.099870
16.160000 16.782070
16.180000 16.441270
16.200000 15.877700
16.220000 15.280450
16.240000 14.652880
16.260000 13.978330
16.280000 13.454310
16.300000 12.914240
16.320000 12.467550
16.340000 12.239560
16.360000 11.971170
16.380000 11.750240
16.400000 11.408950
16.420000 11.035300
16.440000 10.756940
16.460000 10.319470
16.480000 9.834172
16.500000 9.565868
16.520000 9.324562
16.540000 9.047323
16.560000 8.752664
16.580000 8.417928
16.600000 8.120188
16.620000 7.717731
16.640000 7.151827
16.660000 6.650801
16.680000 6.144649
16.700000 5.750314
16.720000 5.446021
16.740000 5.138773
16.760000 4.844423
16.780000 4.617736
16.800000 4.358884
16.820000 3.985806
16.840000 3.475145
16.860000 3.044920
16.880000 2.690985
16.900000 2.308721
16.920000 1.896350
16.940000 1.508863
16.960000 1.234859
16.980000 0.937455
17.000000 0.457686
17.020000 -0.046883
17.040000 -0.456272
17.060000 -0.915008
17.080000 -1.466797
17.100000 -1.937660
17.120000 -2.364398
17.140000 -2.684837
17.160000 -3.062004
17.180000 -3.491319
17.200000 -3.917456
17.220000 -4.318932
17.240000 -4.789137
17.260000 -5.281622
17.280000 -5.766936
17.300000 -6.241902
17.320000 -6.624124
17.340000 -7.014118
17.360000 -7.457339
17.380000 -7.889357
17.400000 -8.353918
17.420000 -8.790571
17.440000 -9.354557
17.460000 -9.964879
17.480000 -10.458820
17.500000 -10.981010
17.520000 -11.451270
17.540000 -12.014370
17.560000 -12.525420
17.580000 -12.988770
17.600000 -13.614810
17.620000 -14.290730
17.640000 -14.972860
17.660000 -15.737240
17.680000 -16.651650
17.700000 -17.370970
17.720000 -17.578990
17.740000 -17.920220
17.760000 -18.335100
17.780000 -18.569320
17.800000 -18.576240
17.820000 -18.658630
17.840000 -18.843760
17.860000 -18.821500
17.880000 -18.496580
17.900000 -18.313740
17.920000 -18.091210
17.940000 -17.409730
17.960000 -16.792580
17.980000 -16.102620
18.000000 -15.218550
18.020000 -14.436060
18.040000 -13.889840
18.060000 -13.518360
18.080000 -12.797270
18.100000 -12.049690
18.120000 -11.616300
18.140000 -11.030440
18.160000 -10.116230
18.180000 -9.330821
18.200000 -8.794996
18.220000 -8.098455
18.240000 -7.368907
18.260000 -7.047432
18.280000 -6.770544
18.300000 -6.378715
18.320000 -6.148584
18.340000 -5.986999
18.360000 -5.731634
18.380000 -5.484376
18.400000 -5.259202
18.420000 -5.196019
18.440000 -4.978071
18.460000 -4.909034
18.480000 -5.063085
18.500000 -4.971251
18.520000 -4.941956
18.540000 -4.966742
18.560000 -4.978855
18.580000 -4.865694
18.600000 -4.731345
18.620000 -4.816654
18.640000 -4.768048
18.660000 -4.629947
18.680000 -4.637047
18.700000 -4.632314
18.720000 -4.446279
18.740000 -4.214425
18.760000 -4.046987
18.780000 -3.679497
18.800000 -3.298353
18.820000 -3.030328
18.840000 -2.697062
18.860000 -2.261222
18.880000 -1.867713
18.900000 -1.494859
18.920000 -0.925440
18.940000 -0.330185
18.960000 0.210401
18.980000 0.828565
19.000000 1.434995
19.020000 2.103054
19.040000 2.609359
19.060000 3.298549
19.080000 3.914585
19.100000 4.669675
19.120000 5.320775
19.140000 6.093971
19.160000 6.978984
19.180000 7.525381
19.200000 8.367852
19.220000 9.032563
19.240000 9.593874
19.260000 10.291510
19.280000 10.964620
19.300000 11.642260
19.320000 12.287000
19.340000 13.024780
19.360000 13.781960
19.380000 14.445400
19.400000 14.920210
19.420000 15.541380
19.440000 16.090900
19.460000 16.541320
19.480000 17.020630
19.500000 17.564160
19.520000 18.187280
19.540000 18.647920
19.560000 19.167320
19.580000 19.609680
19.600000 20.042920
19.620000 20.420770
19.640000 20.698430
19.660000 21.034680
19.680000 21.178030
19.700000 21.347530
19.720000 21.566630
19.740000 21.549960
19.760000 21.520530
19.780000 21.415610
19.800000 21.185340
19.820000 20.793650
19.840000 20.479880
19.860000 20.256880
19.880000 20.216480
19.900000 20.013580
19.920000 19.903330
19.940000 20.005770
19.960000 19.742310
19.980000 19.122140
20.000000 18.330150
20.020000 17.580990
20.040000 16.700270
20.060000 15.629140
20.080000 14.766020
20.100000 14.129680
20.120000 13.640540
20.140000 13.054740
20.160000 12.580230
20.180000 12.256330
20.200000 11.825900
20.220000 11.271420
20.240000 10.710170
20.260000 10.236150
20.280000 9.800718
20.300000 9.473361
20.320000 9.169222
20.340000 8.919318
20.360000 8.690111
20.380000 8.360360
20.400000 8.084199
20.420000 7.583537
20.440000 6.978620
20.460000 6.636783
20.480000 6.307186
20.500000 5.921589
20.520000 5.622940
20.540000 5.502637
20.560000 5.390246
20.580000 5.135160
20.600000 4.665572
20.620000 4.347457
20.640000 4.041666
20.660000 3.488771
20.680000 3.042021
20.700000 2.778940
20.720000 2.625085
20.740000 2.317333
20.760000 2.000283
20.780000 1.734121
20.800000 1.331650
20.820000 0.822698
20.840000 0.231406
20.860000 -0.350126
20.880000 -0.830596
20.900000 -1.276491
20.920000 -1.654890
20.940000 -2.007677
20.960000 -2.410904
20.980000 -2.794064
21.000000 -3.268330
21.020000 -3.886242
21.040000 -4.522583
21.060000 -5.113413
21.080000 -5.671251
21.100000 -6.180778
21.120000 -6.733225
21.140000 -7.035613
21.160000 -7.445716
21.180000 -7.981289
21.200000 -8.452348
21.220000 -9.063049
21.240000 -9.661300
21.260000 -10.280700
21.280000 -10.884200
21.300000 -11.386000
21.320000 -11.836210
21.340000 -12.212070
21.360000 -12.572210
21.380000 -13.052060
21.400000 -13.582650
21.420000 -14.093310
21.440000 -14.700580
21.460000 -15.355500
21.480000 -16.021910
21.500000 -16.498980
21.520000 -16.940730
21.540000 -17.751790
21.560000 -18.327760
21.580000 -18.263050
21.600000 -18.314970
21.620000 -18.723510
21.640000 -18.905970
21.660000 -18.692140
21.680000 -18.477370
21.700000 -18.543150
21.720000 -18.407350
21.740000 -17.914390
21.760000 -17.492320
21.780000 -17.264640
21.800000 -16.740200
21.820000 -16.096620
21.840000 -15.618400
21.860000 -14.835630
21.880000 -13.917040
21.900000 -13.283190
21.920000 -12.855150
21.940000 -12.223360
21.960000 -11.568260
21.980000 -11.133030
22.000000 -10.742580
22.020000 -10.002630
22.040000 -9.309676
22.060000 -8.961944
22.080000 -8.253010
22.100000 -7.544202
22.120000 -7.147136
22.140000 -6.853247
22.160000 -6.410307
22.180000 -6.063192
22.200000 -5.881386
22.220000 -5.490748
22.240000 -5.099270
22.260000 -4.726066
22.280000 -4.420555
22.300000 -4.145683
22.320000 -3.840871
22.340000 -3.884716
22.360000 -3.761150
22.380000 -3.519830
22.400000 -3.519186
22.420000 -3.389319
22.440000 -3.072983
22.460000 -2.864445
22.480000 -2.780774
22.500000 -2.537144
22.520000 -2.343659
22.540000 -2.279286
22.560000 -2.266935
22.580000 -2.078800
22.600000 -1.850615
22.620000 -1.706898
22.640000 -1.405994
22.660000 -0.996662
22.680000 -0.722630
22.700000 -0.440168
22.720000 -0.017168
22.740000 0.275824
22.760000 0.536105
22.780000 1.005596
22.800000 1.518483
22.820000 1.884237
22.840000 2.505748
22.860000 3.066849
22.880000 3.712614
22.900000 4.236844
22.920000 4.801208
22.940000 5.468777
22.960000 6.045477
22.980000 6.610345
23.000000 7.290965
23.020000 8.089241
23.040000 8.654038
23.060000 9.496271
23.080000 10.221830
23.100000 10.768170
23.120000 11.522070
23.140000 12.129480
23.160000 12.814790
23.180000 13.387880
23.200000 14.085300
23.220000 14.876410
23.240000 15.482920
23.260000 16.107460
23.280000 16.774130
23.300000 17.404570
23.320000 17.871540
23.340000 18.325160
23.360000 18.853390
23.380000 19.400120
23.400000 19.793200
23.420000 20.334110
23.440000 20.829830
23.460000 21.245660
23.480000 21.757420
23.500000 21.925660
23.520000 22.051180
23.540000 22.091650
23.560000 22.047630
23.580000 22.055470
23.600000 21.834270
23.620000 21.533450
23.640000 21.399310
23.660000 21.090640
23.680000 20.771030
23.700000 20.574000
23.720000 20.367800
23.740000 20.244040
23.760000 20.087230
23.780000 19.783450
23.800000 19.270720
23.820000 18.574950
23.840000 17.743270
23.860000 16.910660
23.880000 15.890950
23.900000 14.906050
23.920000 14.236380
23.940000 13.565610
23.960000 12.913890
23.980000 12.384440
24.000000 11.999330
24.020000 11.605820
24.040000 11.014100
24.060000 10.412970
24.080000 9.946913
24.100000 9.570391
24.120000 9.059030
24.140000 8.600209
24.160000 8.356803
24.180000 8.145212
24.200000 7.696642
24.220000 7.360113
24.240000 7.048118
24.260000 6.624110
24.280000 6.300311
24.300000 5.926981
24.320000 5.648846
24.340000 5.524216
24.360000 5.293258
24.380000 5.123608
24.400000 4.949196
24.420000 4.621615
24.440000 4.430707
24.460000 4.140137
24.480000 3.809014
24.500000 3.553396
24.520000 3.295706
24.540000 3.131027
24.560000 2.880226
24.580000 2.507877
24.600000 2.271878
24.620000 1.919203
24.640000 1.428875
24.660000 0.943407
24.680000 0.498688
24.700000 0.115682
24.720000 -0.408674
24.740000 -0.910345
24.760000 -1.251089
24.780000 -1.669313
24.800000 -2.154628
24.820000 -2.682555
24.840000 -3.232341
24.860000 -3.671277
24.880000 -4.257667
24.900000 -4.868746
24.920000 -5.289183
24.940000 -5.741226
24.960000 -6.224580
24.980000 -6.619699
25.000000 -7.087566
25.020000 -7.549355
25.040000 -8.021604
25.060000 -8.504426
25.080000 -8.984294
25.100000 -9.474061
25.120000 -9.903013
25.140000 -10.258780
25.160000 -10.627100
25.180000 -11.067740
25.200000 -11.449870
25.220000 -11.822030
25.240000 -12.289420
25.260000 -12.840680
25.280000 -13.366590
25.300000 -13.764230
25.320000 -14.304190
25.340000 -14.871250
25.360000 -15.407760
25.380000 -15.984350
25.400000 -16.596520
25.420000 -17.080000
25.440000 -17.301750
25.460000 -17.575890
25.480000 -17.851350
25.500000 -17.897300
25.520000 -17.887890
25.540000 -17.812030
25.560000 -17.794010
25.580000 -17.822920
25.600000 -17.518560
25.620000 -17.247160
25.640000 -17.040020
25.660000 -16.624950
25.680000 -16.093170
25.700000 -15.435420
25.720000 -14.704540
25.740000 -14.029120
25.760000 -13.543340
25.780000 -13.197180
25.800000 -12.755270
25.820000 -12.284130
25.840000 -11.908830
25.860000 -11.431720
25.880000 -10.808900
25.900000 -10.118620
25.920000 -9.492630
25.940000 -8.875894
25.960000 -8.283285
25.980000 -7.891303
26.000000 -7.554284
26.020000 -7.292645
26.040000 -7.016681
26.060000 -6.696200
26.080000 -6.335697
26.100000 -5.885125
26.120000 -5.412021
26.140000 -5.092002
26.160000 -4.730981
26.180000 -4.504099
26.200000 -4.429531
26.220000 -4.257822
26.240000 -4.081827
26.260000 -3.865895
26.280000 -3.556141
26.300000 -3.139751
26.320000 -2.735796
26.340000 -2.426153
26.360000 -2.138860
26.380000 -1.888578
26.400000 -1.722008
26.420000 -1.562468
26.440000 -1.266408
26.460000 -0.935887
26.480000 -0.534228
26.500000 -0.028903
26.520000 0.434916
26.540000 0.914126
26.560000 1.312732
26.580000 1.637974
26.600000 1.988338
26.620000 2.303792
26.640000 2.758369
26.660000 3.299487
26.680000 3.848419
26.700000 4.537133
26.720000 5.156432
26.740000 5.812993
26.760000 6.258973
26.780000 6.756960
26.800000 7.261572
26.820000 7.754490
26.840000 8.314261
26.860000 9.001322
26.880000 9.791756
26.900000 10.431090
26.920000 11.271490
26.940000 11.913270
26.960000 12.413190
26.980000 13.039070
27.000000 13.528500
27.020000 14.047360
27.040000 14.641780
27.060000 15.298680
27.080000 15.979020
27.100000 16.678110
27.120000 17.194620
27.140000 17.731300
27.160000 18.171610
27.180000 18.467500
27.200000 18.791610
27.220000 19.159590
27.240000 19.574050
27.260000 19.983950
27.280000 20.473220
27.300000 20.912820
27.320000 21.175540
27.340000 21.268160
27.360000 21.242000
27.380000 21.133150
27.400000 20.865840
27.420000 20.604430
27.440000 20.367430
27.460000 20.021840
27.480000 19.850580
27.500000 19.787250
27.520000 19.676630
27.540000 19.509270
27.560000 19.301720
27.580000 19.203820
27.600000 19.084120
27.620000 18.407970
27.640000 17.725880
27.660000 17.228940
27.680000 16.543110
27.700000 15.663160
27.720000 14.869490
27.740000 14.266000
27.760000 13.674200
27.780000 12.995210
27.800000 12.371670
27.820000 11.972120
27.840000 11.699870
27.860000 11.220180
27.880000 10.821690
27.900000 10.510020
27.920000 10.211620
27.940000 9.944869
27.960000 9.521701
27.980000 9.216442
28.000000 8.985470
28.020000 8.723929
28.040000 8.504496
28.060000 8.184407
28.080000 7.772512
28.100000 7.614120
28.120000 7.423086
28.140000 7.045500
28.160000 6.742299
28.180000 6.570379
28.200000 6.527837
28.220000 6.243247
28.240000 5.923130
28.260000 5.737543
28.280000 5.591432
28.300000 5.311379
28.320000 4.817354
28.340000 4.504519
28.360000 4.372047
28.380000 3.984084
28.400000 3.517870
28.420000 3.172015
28.440000 2.788378
28.460000 2.402418
28.480000 1.888914
28.500000 1.342069
28.520000 0.878823
28.540000 0.361189
28.560000 -0.159778
28.580000 -0.705602
28.600000 -1.243877
28.620000 -1.793383
28.640000 -2.299857
28.660000 -2.827322
28.680000 -3.510448
28.700000 -4.122143
28.720000 -4.641626
28.740000 -5.222990
28.760000 -5.858812
28.780000 -6.499634
28.800000 -6.972318
28.820000 -7.398034
28.840000 -8.010738
28.860000 -8.560664
28.880000 -8.979056
28.900000 -9.445901
28.920000 -9.955133
28.940000 -10.503570
28.960000 -10.949230
28.980000 -11.326370
29.000000 -11.753260
29.020000 -12.170450
29.040000 -12.550570
29.060000 -12.904370
29.080000 -13.302610
29.100000 -13.725820
29.120000 -14.193830
29.140000 -14.710240
29.160000 -15.158980
29.180000 -15.663660
29.200000 -16.274880
29.220000 -16.996050
29.240000 -17.459170
29.260000 -17.584420
29.280000 -17.763890
29.300000 -18.103060
29.320000 -18.200860
29.340000 -18.089700
29.360000 -18.002640
29.380000 -17.998830
29.400000 -17.886600
29.420000 -17.690310
29.440000 -17.524080
29.460000 -17.165700
29.480000 -16.629980
29.500000 -16.122890
29.520000 -15.569050
29.540000 -14.767850
29.560000 -13.878920
29.580000 -13.257770
29.600000 -12.906300
29.620000 -12.383740
29.640000 -11.885990
29.660000 -11.569550
29.680000 -11.155890
29.700000 -10.591630
29.720000 -10.018330
29.740000 -9.512501
29.760000 -8.873051
29.780000 -8.216895
29.800000 -7.835654
29.820000 -7.429990
29.840000 -7.033639
29.860000 -6.832971
29.880000 -6.530274
29.900000 -6.175905
29.920000 -5.790112
29.940000 -5.341262
29.960000 -4.988251
29.980000 -4.619612
30.000000 -4.273505
30.020000 -4.124804
30.040000 -3.900428
30.060000 -3.651714
30.080000 -3.471953
30.100000 -3.200539
30.120000 -2.845036
30.140000 -2.501393
30.160000 -2.226031
30.180000 -1.970232
30.200000 -1.768667
30.220000 -1.645592
30.240000 -1.468281
30.260000 -1.238430
30.280000 -0.924600
30.300000 -0.610379
30.320000 -0.151810
30.340000 0.323394
30.360000 0.626119
30.380000 1.025172
30.400000 1.422182
30.420000 1.633717
30.440000 2.016023
30.460000 2.481705
30.480000 2.893306
30.500000 3.559936
30.520000 4.016347
30.540000 4.640870
30.560000 5.177549
30.580000 5.632098
30.600000 6.101813
30.620000 6.610037
30.640000 7.120838
30.660000 7.667193
30.680000 8.425881
30.700000 8.966621
30.720000 9.688831
30.740000 10.353440
30.760000 10.833610
30.780000 11.357770
30.800000 11.829080
30.820000 12.348480
30.840000 12.845110
30.860000 13.376170
30.880000 13.999670
30.900000 14.693470
30.920000 15.222910
30.940000 15.750760
30.960000 16.286900
30.980000 16.663990
31.000000 17.064980
31.020000 17.459400
31.040000 17.868110
31.060000 18.334920
31.080000 18.816320
31.100000 19.313270
31.120000 19.771230
31.140000 20.163620
31.160000 20.310800
31.180000 20.452110
31.200000 20.406240
31.220000 20.299070
31.240000 20.322180
31.260000 20.147750
31.280000 19.943970
31.300000 19.940990
31.320000 19.895040
31.340000 19.845370
31.360000 19.823950
31.380000 19.725040
31.400000 19.762450
31.420000 19.765490
31.440000 19.375180
31.460000 18.984710
31.480000 18.506480
31.500000 17.826710
31.520000 17.054080
31.540000 16.230560
31.560000 15.527970
31.580000 14.876900
31.600000 14.301130
31.620000 13.711260
31.640000 13.352810
31.660000 13.129390
31.680000 12.698070
31.700000 12.277680
31.720000 11.826160
31.740000 11.443610
31.760000 11.050760
31.780000 10.583090
31.800000 10.170110
31.820000 9.942012
31.840000 9.701686
31.860000 9.286724
31.880000 9.073229
31.900000 8.663659
31.920000 8.270276
31.940000 8.027164
31.960000 7.493215
31.980000 7.173616
32.000000 6.918965
32.020000 6.684675
32.040000 6.511425
32.060000 6.162769
32.080000 5.834979
32.100000 5.633148
32.120000 5.219685
32.140000 4.643362
32.160000 4.179851
32.180000 3.834654
32.200000 3.512240
32.220000 2.931255
32.240000 2.405008
32.260000 2.076727
32.280000 1.656654
32.300000 1.090316
32.320000 0.400188
32.340000 -0.097085
32.360000 -0.524524
32.380000 -1.191869
32.400000 -1.754048
32.420000 -2.270968
32.440000 -2.751395
32.460000 -3.185668
32.480000 -3.796999
32.500000 -4.394410
32.520000 -4.848343
32.540000 -5.397429
32.560000 -5.930188
32.580000 -6.456322
32.600000 -7.052851
32.620000 -7.351753
32.640000 -7.786950
32.660000 -8.312174
32.680000 -8.730651
32.700000 -9.146971
32.720000 -9.462271
32.740000 -9.916176
32.760000 -10.451120
32.780000 -10.777160
32.800000 -11.082810
32.820000 -11.483140
32.840000 -11.941890
32.860000 -12.303220
32.880000 -12.628950
32.900000 -13.012810
32.920000 -13.523160
32.940000 -13.962310
32.960000 -14.423550
32.980000 -14.909470
33.000000 -15.426490
33.020000 -16.090190
33.040000 -16.782070
33.060000 -17.397840
33.080000 -17.610310
33.100000 -17.684780
33.120000 -17.970830
33.140000 -18.049370
33.160000 -17.911370
33.180000 -17.693300
33.200000 -17.621040
33.220000 -17.671650
33.240000 -17.483240
33.260000 -17.310080
33.280000 -17.163520
33.300000 -16.683720
33.320000 -16.105190
33.340000 -15.571000
33.360000 -14.763200
33.380000 -13.898400
33.400000 -13.294810
33.420000 -12.918160
33.440000 -12.574280
33.460000 -12.105880
33.480000 -11.693750
33.500000 -11.399990
33.520000 -10.893360
33.540000 -10.115860
33.560000 -9.616546
33.580000 -9.093198
33.600000 -8.434017
33.620000 -8.075181
33.640000 -7.841899
33.660000 -7.534203
33.680000 -7.281120
33.700000 -7.001403
33.720000 -6.606032
33.740000 -6.120255
33.760000 -5.696779
33.780000 -5.354299
33.800000 -5.040302
33.820000 -4.762825
33.840000 -4.601492
33.860000 -4.510568
33.880000 -4.208656
33.900000 -4.011866
33.920000 -3.784522
33.940000 -3.369182
33.960000 -3.049359
33.980000 -2.785886
34.000000 -2.574421
34.020000 -2.398090
34.040000 -2.171418
34.060000 -2.015308
34.080000 -1.770124
34.100000 -1.323528
34.120000 -1.034051
34.140000 -0.632798
34.160000 -0.074946
34.180000 0.233716
34.200000 0.536973
34.220000 0.922948
34.240000 1.240950
34.260000 1.596468
34.280000 2.019467
34.300000 2.571662
34.320000 3.128030
34.340000 3.592998
34.360000 4.199722
34.380000 4.721319
34.400000 5.176764
34.420000 5.589276
34.440000 6.201797
34.460000 6.633731
34.480000 7.213988
34.500000 7.918792
34.520000 8.456535
34.540000 9.226104
34.560000 9.738361
34.580000 10.326960
34.600000 10.951460
34.620000 11.338010
34.640000 11.947840
34.660000 12.593970
34.680000 13.136530
34.700000 13.810820
34.720000 14.550800
34.740000 15.136520
34.760000 15.720890
34.780000 16.265670
34.800000 16.814580
34.820000 17.281670
34.840000 17.758630
34.860000 18.283870
34.880000 18.820920
34.900000 19.388720
34.920000 19.854480
34.940000 20.446030
34.960000 20.892280
34.980000 21.032640
35.000000 21.262570
35.020000 21.323020
35.040000 21.298430
35.060000 21.349900
35.080000 21.153990
35.100000 21.096840
35.120000 20.943840
35.140000 20.663830
35.160000 20.611290
35.180000 20.504470
35.200000 20.218030
35.220000 20.202700
35.240000 20.175520
35.260000 19.920680
35.280000 19.371000
35.300000 18.726020
35.320000 18.108100
35.340000 17.326510
35.360000 16.298450
35.380000 15.458190
35.400000 14.890970
35.420000 14.330900
35.440000 13.643120
35.460000 13.238850
35.480000 13.052450
35.500000 12.701640
35.520000 12.219090
35.540000 11.727780
35.560000 11.348100
35.580000 10.962470
35.600000 10.470950
35.620000 10.002200
35.640000 9.700188
35.660000 9.469286
35.680000 9.115799
35.700000 8.792630
35.720000 8.370960
35.740000 7.858871
35.760000 7.544566
35.780000 7.010491
35.800000 6.482074
35.820000 6.195173
35.840000 5.989436
35.860000 5.875896
35.880000 5.620293
35.900000 5.304545
35.920000 5.198204
35.940000 4.910336
35.960000 4.460394
35.980000 4.107383
36.000000 3.819222
36.020000 3.601372
36.040000 3.335098
36.060000 2.997028
36.080000 2.832279
36.100000 2.517553
36.120000 1.998280
36.140000 1.512154
36.160000 0.988652
36.180000 0.467853
36.200000 -0.042542
36.220000 -0.455866
36.240000 -0.863209
36.260000 -1.291236
36.280000 -1.702361
36.300000 -2.177818
36.320000 -2.793209
36.340000 -3.455317
36.360000 -4.118026
36.380000 -4.789627
36.400000 -5.409178
36.420000 -6.033448
36.440000 -6.538130
36.460000 -6.954170
36.480000 -7.472028
36.500000 -8.085236
36.520000 -8.616215
36.540000 -9.191460
36.560000 -9.882316
36.580000 -10.494910
36.600000 -11.055880
36.620000 -11.473490
36.640000 -11.874770
36.660000 -12.327920
36.680000 -12.634230
36.700000 -13.057540
36.720000 -13.528930
36.740000 -14.054210
36.760000 -14.642170
36.780000 -15.115720
36.800000 -15.655400
36.820000 -16.165670
36.840000 -16.642710
36.860000 -17.223990
36.880000 -17.659410
36.900000 -17.687120
36.920000 -17.931090
36.940000 -18.233280
36.960000 -18.350910
36.980000 -18.230800
37.000000 -18.048920
37.020000 -18.079020
37.040000 -17.958560
37.060000 -17.632510
37.080000 -17.391550
37.100000 -17.006630
37.120000 -16.553280
37.140000 -16.138260
37.160000 -15.652180
37.180000 -14.929830
37.200000 -14.163730
37.220000 -13.541380
37.240000 -13.034540
37.260000 -12.549210
37.280000 -12.023840
37.300000 -11.603680
37.320000 -11.226860
37.340000 -10.585330
37.360000 -10.052360
37.380000 -9.615593
37.400000 -8.996323
37.420000 -8.459167
37.440000 -8.119362
37.460000 -7.718599
37.480000 -7.288192
37.500000 -7.015700
37.520000 -6.738840
37.540000 -6.310575
37.560000 -6.013270
37.580000 -5.673170
37.600000 -5.285178
37.620000 -5.041982
37.640000 -4.679421
37.660000 -4.506409
37.680000 -4.273519
37.700000 -3.967280
37.720000 -3.850114
37.740000 -3.554306
37.760000 -3.251806
37.780000 -3.026800
37.800000 -2.742027
37.820000 -2.517105
37.840000 -2.233663
37.860000 -1.961073
37.880000 -1.779646
37.900000 -1.417057
37.920000 -1.076243
37.940000 -0.804886
37.960000 -0.395707
37.980000 0.027083
38.000000 0.347970
38.020000 0.714144
38.040000 1.142829
38.060000 1.482970
38.080000 1.875569
38.100000 2.352678
38.120000 2.824073
38.140000 3.316235
38.160000 3.844302
38.180000 4.406929
38.200000 4.870987
38.220000 5.394643
38.240000 5.842134
38.260000 6.395169
38.280000 6.798886
38.300000 7.427119
38.320000 7.979048
38.340000 8.518486
38.360000 9.237265
38.380000 9.686436
38.400000 10.351690
38.420000 10.900720
38.440000 11.353790
38.460000 11.979910
38.480000 12.539010
38.500000 13.071530
38.520000 13.690290
38.540000 14.335650
38.560000 14.891990
38.580000 15.509110
38.600000 16.071020
38.620000 16.594800
38.640000 17.144480
38.660000 17.659700
38.680000 18.149730
38.700000 18.693650
38.720000 19.217040
38.740000 19.676610
38.760000 20.204670
38.780000 20.660060
38.800000 20.982780
38.820000 21.209090
38.840000 21.258990
38.860000 21.346000
38.880000 21.362840
38.900000 21.190540
38.920000 21.052510
38.940000 20.806450
38.960000 20.530740
38.980000 20.404870
39.000000 20.172350
39.020000 20.016440
39.040000 19.931760
39.060000 19.826820
39.080000 19.735970
39.100000 19.329670
39.120000 18.686970
39.140000 18.128840
39.160000 17.469440
39.180000 16.601450
39.200000 15.752260
39.220000 15.184170
39.240000 14.708210
39.260000 14.142640
39.280000 13.646740
39.300000 13.311780
39.320000 13.050630
39.340000 12.654240
39.360000 12.114340
39.380000 11.792880
39.400000 11.527110
39.420000 11.168790
39.440000 10.729580
39.460000 10.374550
39.480000 10.057020
39.500000 9.675864
39.520000 9.217898
39.540000 8.758784
39.560000 8.385020
39.580000 8.007069
39.600000 7.713628
39.620000 7.404112
39.640000 7.108501
39.660000 6.848626
39.680000 6.592631
39.700000 6.254449
39.720000 5.832808
39.740000 5.549450
39.760000 5.250436
39.780000 5.036157
39.800000 4.775288
39.820000 4.495431
39.840000 4.403723
39.860000 4.146257
39.880000 3.704801
39.900000 3.301728
39.920000 2.900979
39.940000 2.407907
39.960000 1.880036
39.980000 1.364530
40.000000 0.964510
40.020000 0.612451
40.040000 0.112167
40.060000 -0.469589
40.080000 -0.984507
40.100000 -1.570744
40.120000 -2.304772
40.140000 -3.046656
40.160000 -3.681289
40.180000 -4.290813
40.200000 -4.850206
40.220000 -5.410677
40.240000 -5.929711
40.260000 -6.422056
40.280000 -7.011864
40.300000 -7.631008
40.320000 -8.240743
40.340000 -8.864299
40.360000 -9.410976
40.380000 -9.912773
40.400000 -10.355060
40.420000 -10.702210
40.440000 -11.058050
40.460000 -11.431410
40.480000 -11.791200
40.500000 -12.230900
40.520000 -12.712230
40.540000 -13.117390
40.560000 -13.574320
40.580000 -13.971890
40.600000 -14.330930
40.620000 -14.661690
40.640000 -15.060820
40.660000 -15.532410
40.680000 -16.084460
40.700000 -16.739260
40.720000 -17.124030
40.740000 -17.406840
40.760000 -17.639440
40.780000 -17.780870
40.800000 -17.792470
40.820000 -17.629380
40.840000 -17.458960
40.860000 -17.448820
40.880000 -17.429220
40.900000 -17.391470
40.920000 -17.271980
40.940000 -16.986920
40.960000 -16.689090
40.980000 -16.361580
41.000000 -15.693320
41.020000 -15.046550
41.040000 -14.353450
41.060000 -13.816030
41.080000 -13.531440
41.100000 -13.160210
41.120000 -12.771850
41.140000 -12.510340
41.160000 -11.951090
41.180000 -11.351160
41.200000 -10.763830
41.220000 -9.983154
41.240000 -9.387395
41.260000 -8.864439
41.280000 -8.378256
41.300000 -8.075433
41.320000 -7.778982
41.340000 -7.462520
41.360000 -7.062360
41.380000 -6.638716
41.400000 -6.197652
41.420000 -5.712729
41.440000 -5.265420
41.460000 -4.845011
41.480000 -4.529613
41.500000 -4.199918
41.520000 -3.921251
41.540000 -3.627152
41.560000 -3.231361
41.580000 -2.951798
41.600000 -2.592415
41.620000 -2.221004
41.640000 -1.963258
41.660000 -1.706688
41.680000 -1.502939
41.700000 -1.306962
41.720000 -1.063178
41.740000 -0.839726
41.760000 -0.531302
41.780000 -0.132122
41.800000 0.201873
41.820000 0.531778
41.840000 0.865646
41.860000 1.162251
41.880000 1.347390
41.900000 1.587632
41.920000 1.917187
41.940000 2.233131
41.960000 2.589825
41.980000 3.107571
42.000000 3.610222
42.020000 3.996449
42.040000 4.512025
42.060000 4.963941
42.080000 5.387319
42.100000 5.748424
42.120000 6.352585
42.140000 6.808941
42.160000 7.403272
42.180000 8.086048
42.200000 8.655425
42.220000 9.386904
42.240000 9.906429
42.260000 10.524860
42.280000 11.140990
42.300000 11.673700
42.320000 12.300510
42.340000 12.956680
42.360000 13.684170
42.380000 14.326480
42.400000 15.060550
42.420000 15.761800
42.440000 16.364150
42.460000 16.935310
42.480000 17.546470
42.500000 18.091710
42.520000 18.626510
42.540000 19.204270
42.560000 19.779380
42.580000 20.357370
42.600000 20.841780
42.620000 21.344060
42.640000 21.567520
42.660000 21.648880
42.680000 21.741960
42.700000 21.670390
42.720000 21.539740
42.740000 21.337180
42.760000 21.036210
42.780000 20.810840
42.800000 20.483750
42.820000 20.192620
42.840000 20.013480
42.860000 19.827870
42.880000 19.628780
42.900000 19.402480
42.920000 19.133420
42.940000 18.505290
42.960000 17.844550
42.980000 17.206990
43.000000 16.402210
43.020000 15.484360
43.040000 14.794040
43.060000 14.258100
43.080000 13.669720
43.100000 13.224180
43.120000 12.827080
43.140000 12.627050
43.160000 12.341170
43.180000 11.955490
43.200000 11.633250
43.220000 11.360370
43.240000 11.120420
43.260000 10.685870
43.280000 10.402150
43.300000 10.228790
43.320000 9.866324
43.340000 9.563179
43.360000 9.300714
43.380000 8.892236
43.400000 8.488603
43.420000 8.154188
43.440000 7.721806
43.460000 7.411086
43.480000 7.100057
43.500000 6.867475
43.520000 6.664160
43.540000 6.342433
43.560000 6.115074
43.580000 5.845159
43.600000 5.568677
43.620000 5.219601
43.640000 4.801922
43.660000 4.646541
43.680000 4.297619
43.700000 3.852816
43.720000 3.500155
43.740000 3.130046
43.760000 2.757221
43.780000 2.265451
43.800000 1.773246
43.820000 1.334913
43.840000 0.855452
43.860000 0.335339
43.880000 -0.167172
43.900000 -0.762917
43.920000 -1.284739
43.940000 -1.891085
43.960000 -2.561874
43.980000 -3.168080
44.000000 -3.897543
44.020000 -4.509308
44.040000 -5.049138
44.060000 -5.745973
44.080000 -6.341929
44.100000 -6.914876
44.120000 -7.392965
44.140000 -7.995642
44.160000 -8.613120
44.180000 -9.055907
44.200000 -9.533758
44.220000 -10.051010
44.240000 -10.517280
44.260000 -10.929660
44.280000 -11.336760
44.300000 -11.665490
44.320000 -12.139430
44.340000 -12.538260
44.360000 -12.878880
44.380000 -13.342490
44.400000 -13.743170
44.420000 -14.206920
44.440000 -14.684550
44.460000 -15.149500
44.480000 -15.656000
44.500000 -16.218990
44.520000 -16.911080
44.540000 -17.644690
44.560000 -18.145140
44.580000 -18.347590
44.600000 -18.641580
44.620000 -18.934190
44.640000 -18.936390
44.660000 -18.831210
44.680000 -18.726870
44.700000 -18.755370
44.720000 -18.613750
44.740000 -18.438720
44.760000 -18.282990
44.780000 -17.909260
44.800000 -17.356390
44.820000 -16.837510
44.840000 -16.207270
44.860000 -15.325890
44.880000 -14.282050
44.900000 -13.619800
44.920000 -13.063950
44.940000 -12.389180
44.960000 -11.739400
44.980000 -11.268330
45.000000 -10.634300
45.020000 -9.873872
45.040000 -9.236060
45.060000 -8.615865
45.080000 -7.881263
45.100000 -7.291609
45.120000 -6.875667
45.140000 -6.516410
45.160000 -6.128111
45.180000 -5.897686
45.200000 -5.674752
45.220000 -5.262703
45.240000 -4.949924
45.260000 -4.652338
45.280000 -4.405235
45.300000 -4.163677
45.320000 -4.004753
45.340000 -4.045615
45.360000 -3.954957
45.380000 -3.836866
45.400000 -3.818018
45.420000 -3.591709
45.440000 -3.335154
45.460000 -3.113704
45.480000 -2.881823
45.500000 -2.651621
45.520000 -2.442131
45.540000 -2.336098
45.560000 -2.136186
45.580000 -1.838320
45.600000 -1.552721
45.620000 -1.173146
45.640000 -0.679317
45.660000 -0.190950
45.680000 0.202503
45.700000 0.603909
45.720000 1.097752
45.740000 1.396416
45.760000 1.855334
45.780000 2.400863
45.800000 2.932781
45.820000 3.536564
45.840000 4.142812
45.860000 4.728489
45.880000 5.289660
45.900000 5.695981
45.920000 6.200551
45.940000 6.727329
45.960000 7.097676
45.980000 7.772190
46.000000 8.355248
46.020000 8.973749
46.040000 9.643012
46.060000 10.199380
46.080000 10.844630
46.100000 11.284470
46.120000 11.783520
46.140000 12.321910
46.160000 12.834310
46.180000 13.425210
46.200000 14.078420
46.220000 14.744410
46.240000 15.351190
46.260000 15.958890
46.280000 16.541010
46.300000 17.028150
46.320000 17.420170
46.340000 17.946220
46.360000 18.434700
46.380000 18.941370
46.400000 19.452820
46.420000 19.990210
46.440000 20.586430
46.460000 20.811190
46.480000 20.931500
46.500000 21.058330
46.520000 20.996380
46.540000 20.879480
46.560000 20.676980
46.580000 20.471190
46.600000 20.324420
46.620000 20.093930
46.640000 19.941020
46.660000 19.883740
46.680000 19.728320
46.700000 19.565920
46.720000 19.478400
46.740000 19.334670
46.760000 18.797530
46.780000 18.211760
46.800000 17.739410
46.820000 17.090860
46.840000 16.309970
46.860000 15.596080
46.880000 15.082760
46.900000 14.629690
46.920000 14.043630
46.940000 13.610120
46.960000 13.432170
46.980000 13.129190
47.000000 12.707610
47.020000 12.371340
47.040000 12.037840
47.060000 11.717670
47.080000 11.247780
47.100000 10.911510
47.120000 10.622030
47.140000 10.206770
47.160000 9.797175
47.180000 9.413175
47.200000 9.001224
47.220000 8.487468
47.240000 8.012418
47.260000 7.688310
47.280000 7.226073
47.300000 6.760979
47.320000 6.501707
47.340000 6.325657
47.360000 6.006576
47.380000 5.692060
47.400000 5.480091
47.420000 5.381802
47.440000 5.146013
47.460000 4.764589
47.480000 4.611925
47.500000 4.447889
47.520000 4.071647
47.540000 3.727486
47.560000 3.406753
47.580000 3.092629
47.600000 2.643317
47.620000 2.134113
47.640000 1.708817
47.660000 1.233473
47.680000 0.614048
47.700000 0.064682
47.720000 -0.450558
47.740000 -1.187724
47.760000 -1.817413
47.780000 -2.445604
47.800000 -3.109419
47.820000 -3.794380
47.840000 -4.469062
47.860000 -5.020193
47.880000 -5.597468
47.900000 -6.270497
47.920000 -6.881058
47.940000 -7.379242
47.960000 -7.901147
47.980000 -8.556155
48.000000 -9.084754
48.020000 -9.499716
48.040000 -9.968730
48.060000 -10.478230
48.080000 -10.881330
48.100000 -11.233700
48.120000 -11.632530
48.140000 -12.077990
48.160000 -12.467140
48.180000 -12.820390
48.200000 -13.274320
48.220000 -13.682560
48.240000 -14.053200
48.260000 -14.497240
48.280000 -14.915740
48.300000 -15.359490
48.320000 -15.837980
48.340000 -16.344340
48.360000 -17.078550
48.380000 -17.839430
48.400000 -18.125430
48.420000 -18.289850
48.440000 -18.522730
48.460000 -18.650510
48.480000 -18.568200
48.500000 -18.339210
48.520000 -18.099380
48.540000 -18.029380
48.560000 -17.921900
48.580000 -17.676200
48.600000 -17.426180
48.620000 -17.013280
48.640000 -16.403680
48.660000 -15.854180
48.680000 -15.112220
48.700000 -14.051200
48.720000 -13.206450
48.740000 -12.675970
48.760000 -12.135420
48.780000 -11.548980
48.800000 -11.026140
48.820000 -10.635560
48.840000 -10.149820
48.860000 -9.452678
48.880000 -8.855281
48.900000 -8.295286
48.920000 -7.615969
48.940000 -7.160285
48.960000 -6.938178
48.980000 -6.623606
49.000000 -6.458955
49.020000 -6.317689
49.040000 -6.052171
49.060000 -5.731396
49.080000 -5.384448
49.100000 -5.093052
49.120000 -4.848988
49.140000 -4.607276
49.160000 -4.521995
49.180000 -4.571385
49.200000 -4.417516
49.220000 -4.256225
49.240000 -4.185802
49.260000 -3.831559
49.280000 -3.485396
49.300000 -3.193342
49.320000 -2.885758
49.340000 -2.688772
49.360000 -2.477223
49.380000 -2.319350
49.400000 -2.093741
49.420000 -1.756232
49.440000 -1.355834
49.460000 -0.876247
49.480000 -0.323716
49.500000 0.171317
49.520000 0.547602
49.540000 1.018703
49.560000 1.423596
49.580000 1.700891
49.600000 2.221480
49.620000 2.697931
49.640000 3.295664
49.660000 3.964857
49.680000 4.474706
49.700000 5.146629
49.720000 5.669263
49.740000 6.093873
49.760000 6.525107
49.780000 7.070790
49.800000 7.473330
49.820000 8.117219
49.840000 8.767718
49.860000 9.302030
49.880000 10.050050
49.900000 10.514080
49.920000 11.043960
49.940000 11.517660
49.960000 11.909980
49.980000 12.486610
50.000000 13.010020
50.020000 13.540050
50.040000 14.241380
50.060000 14.928820
50.080000 15.467700
50.100000 16.062700
50.120000 16.570950
50.140000 17.028700
50.160000 17.508660
50.180000 17.962400
50.200000 18.488360
50.220000 19.049840
50.240000 19.636260
50.260000 20.166540
50.280000 20.716260
50.300000 20.964820
50.320000 21.045520
50.340000 21.209470
50.360000 21.140200
50.380000 20.985460
50.400000 20.915360
50.420000 20.722410
50.440000 20.541430
50.460000 20.429230
50.480000 20.204630
50.500000 20.207310
50.520000 20.016790
50.540000 19.774460
50.560000 19.778510
50.580000 19.427370
50.600000 18.788920
50.620000 18.245200
50.640000 17.630760
50.660000 16.969380
50.680000 16.077450
50.700000 15.373760
50.720000 14.926440
50.740000 14.317760
50.760000 13.658740
50.780000 13.277850
50.800000 12.992000
50.820000 12.668270
50.840000 12.176810
50.860000 11.806060
50.880000 11.537500
50.900000 11.112620
50.920000 10.729950
50.940000 10.312300
50.960000 9.908740
50.980000 9.541124
51.000000 9.050908
51.020000 8.648255
51.040000 8.233755
51.060000 7.754224
51.080000 7.493985
51.100000 7.245776
51.120000 6.846848
51.140000 6.606340
51.160000 6.456378
51.180000 6.167054
51.200000 5.862425
51.220000 5.525168
51.240000 5.310343
51.260000 5.161445
51.280000 4.818096
51.300000 4.532624
51.320000 4.431043
51.340000 4.244308
51.360000 3.874017
51.380000 3.523527
51.400000 3.118970
51.420000 2.754028
51.440000 2.239726
51.460000 1.671484
51.480000 1.211431
51.500000 0.732698
51.520000 0.256696
51.540000 -0.214392
51.560000 -0.810417
51.580000 -1.369025
51.600000 -1.920744
51.620000 -2.567615
51.640000 -3.237270
51.660000 -3.925704
51.680000 -4.489311
51.700000 -4.980353
51.720000 -5.562109
51.740000 -6.150545
51.760000 -6.647468
51.780000 -7.113066
51.800000 -7.623279
51.820000 -8.258611
51.840000 -8.755115
51.860000 -9.181265
51.880000 -9.724316
51.900000 -10.150870
51.920000 -10.556540
51.940000 -10.961460
51.960000 -11.313380
51.980000 -11.813700
52.000000 -12.269290
52.020000 -12.708770
52.040000 -13.271900
52.060000 -13.738060
52.080000 -14.193350
52.100000 -14.716700
52.120000 -15.185190
52.140000 -15.622420
52.160000 -16.130770
52.180000 -16.845450
52.200000 -17.637560
52.220000 -17.953380
52.240000 -18.081620
52.260000 -18.330950
52.280000 -18.540080
52.300000 -18.432450
52.320000 -18.205660
52.340000 -18.045680
52.360000 -18.065420
52.380000 -17.859070
52.400000 -17.538120
52.420000 -17.199450
52.440000 -16.793780
52.460000 -16.346160
52.480000 -15.694060
52.500000 -14.906570
52.520000 -13.973790
52.540000 -13.280120
52.560000 -12.852890
52.580000 -12.453990
52.600000 -11.909990
52.620000 -11.540260
52.640000 -11.254870
52.660000 -10.736390
52.680000 -10.206270
52.700000 -9.622875
52.720000 -9.162459
52.740000 -8.551968
52.760000 -8.051347
52.780000 -7.807297
52.800000 -7.482615
52.820000 -7.243367
52.840000 -7.006570
52.860000 -6.775193
52.880000 -6.436003
52.900000 -6.091716
52.920000 -5.752597
52.940000 -5.341654
52.960000 -5.013933
52.980000 -4.725282
53.000000 -4.526966
53.020000 -4.287383
53.040000 -4.082793
53.060000 -3.877322
53.080000 -3.573897
53.100000 -3.191787
53.120000 -2.891541
53.140000 -2.622186
53.160000 -2.251727
53.180000 -2.012522
53.200000 -1.764648
53.220000 -1.484595
53.240000 -1.205802
53.260000 -0.883808
53.280000 -0.549128
53.300000 -0.200528
53.320000 0.147441
53.340000 0.442534
53.360000 0.799956
53.380000 1.210311
53.400000 1.570464
53.420000 1.986279
53.440000 2.607441
53.460000 2.959051
53.480000 3.552122
53.500000 4.089165
53.520000 4.578821
53.540000 5.143352
53.560000 5.600044
53.580000 6.132452
53.600000 6.714194
53.620000 7.288388
53.640000 7.824185
53.660000 8.545750
53.680000 9.067810
53.700000 9.730883
53.720000 10.326870
53.740000 10.722070
53.760000 11.339860
53.780000 11.850350
53.800000 12.371990
53.820000 12.901160
53.840000 13.508110
53.860000 14.123880
53.880000 14.729580
53.900000 15.280870
53.920000 15.764500
53.940000 16.376940
53.960000 16.868300
53.980000 17.308540
54.000000 17.810360
54.020000 18.336850
54.040000 18.854650
54.060000 19.359020
54.080000 19.810720
54.100000 20.266260
54.120000 20.716260
54.140000 20.822960
54.160000 20.936490
54.180000 21.036610
54.200000 20.999080
54.220000 20.993790
54.240000 20.763980
54.260000 20.507900
54.280000 20.413130
54.300000 20.280820
54.320000 20.097340
54.340000 19.996430
54.360000 19.910660
54.380000 19.883810
54.400000 19.780170
54.420000 19.304770
54.440000 18.783420
54.460000 18.261800
54.480000 17.450310
54.500000 16.573330
54.520000 15.816480
54.540000 15.231420
54.560000 14.655170
54.580000 14.098300
54.600000 13.609490
54.620000 13.271700
54.640000 13.063430
54.660000 12.671870
54.680000 12.239610
54.700000 11.907820
54.720000 11.571680
54.740000 11.160280
54.760000 10.708750
54.780000 10.283190
54.800000 9.929633
54.820000 9.632566
54.840000 9.142420
54.860000 8.761766
54.880000 8.444674
54.900000 8.055198
54.920000 7.697020
54.940000 7.251083
54.960000 6.874687
54.980000 6.647328
55.000000 6.356548
55.020000 5.970517
55.040000 5.705041
55.060000 5.445111
55.080000 5.257088
55.100000 4.998446
55.120000 4.596549
55.140000 4.415149
55.160000 4.239911
55.180000 3.869088
55.200000 3.475776
55.220000 3.121042
55.240000 2.769320
55.260000 2.400653
55.280000 1.868763
55.300000 1.375313
55.320000 1.043013
55.340000 0.600758
55.360000 0.073042
55.380000 -0.424344
55.400000 -0.921842
55.420000 -1.426453
55.440000 -2.030544
55.460000 -2.732043
55.480000 -3.337688
55.500000 -3.906001
55.520000 -4.488443
55.540000 -5.126254
55.560000 -5.731970
55.580000 -6.225813
55.600000 -6.728015
55.620000 -7.299647
55.640000 -7.907183
55.660000 -8.469488
55.680000 -8.936486
55.700000 -9.482141
55.720000 -10.049520
55.740000 -10.562890
55.760000 -11.032580
55.780000 -11.438540
55.800000 -11.929520
55.820000 -12.464540
55.840000 -12.912600
55.860000 -13.336020
55.880000 -13.887670
55.900000 -14.449470
55.920000 -14.970370
55.940000 -15.464250
55.960000 -15.986690
55.980000 -16.607050
56.000000 -17.293330
56.020000 -17.874850
56.040000 -18.172100
56.060000 -18.395790
56.080000 -18.724080
56.100000 -18.904240
56.120000 -18.839160
56.140000 -18.709100
56.160000 -18.679590
56.180000 -18.655560
56.200000 -18.396080
56.220000 -18.176500
56.240000 -17.832450
56.260000 -17.382010
56.280000 -16.884030
56.300000 -16.254250
56.320000 -15.585060
56.340000 -14.789670
56.360000 -13.856860
56.380000 -13.342530
56.400000 -12.780410
56.420000 -12.243090
56.440000 -11.760410
56.460000 -11.225210
56.480000 -10.691500
56.500000 -10.051830
56.520000 -9.466696
56.540000 -8.913059
56.560000 -8.305340
56.580000 -7.900713
56.600000 -7.616347
56.620000 -7.268083
56.640000 -7.038204
56.660000 -6.788258
56.680000 -6.469317
56.700000 -6.137171
56.720000 -5.740442
56.740000 -5.429833
56.760000 -5.154625
56.780000 -4.888715
56.800000 -4.765262
56.820000 -4.541376
56.840000 -4.382690
56.860000 -4.159196
56.880000 -3.892628
56.900000 -3.668168
56.920000 -3.350669
56.940000 -3.157395
56.960000 -2.901904
56.980000 -2.631443
57.000000 -2.421630
57.020000 -2.184357
57.040000 -1.928376
57.060000 -1.549234
57.080000 -1.237085
57.100000 -0.874328
57.120000 -0.468385
57.140000 -0.152567
57.160000 0.191972
57.180000 0.512369
57.200000 0.932134
57.220000 1.314440
57.240000 1.779072
57.260000 2.339920
57.280000 2.812142
57.300000 3.380875
57.320000 3.840969
57.340000 4.390924
57.360000 4.848904
57.380000 5.389700
57.400000 5.933898
57.420000 6.587758
57.440000 7.193221
57.460000 7.791389
57.480000 8.589973
57.500000 9.084768
57.520000 9.719582
57.540000 10.318480
57.560000 10.805490
57.580000 11.406930
57.600000 11.903340
57.620000 12.549730
57.640000 13.107390
57.660000 13.701830
57.680000 14.275910
57.700000 14.809970
57.720000 15.277710
57.740000 15.730990
57.760000 16.232870
57.780000 16.649690
57.800000 17.122880
57.820000 17.600440
57.840000 18.154870
57.860000 18.582650
57.880000 19.044490
57.900000 19.468100
57.920000 19.834370
57.940000 20.189280
57.960000 20.324230
57.980000 20.462490
58.000000 20.572820
58.020000 20.565090
58.040000 20.585580
58.060000 20.418030
58.080000 20.185040
58.100000 19.990320
58.120000 19.825320
58.140000 19.652310
58.160000 19.575810
58.180000 19.526840
58.200000 19.496520
58.220000 19.616250
58.240000 19.360380
58.260000 18.877110
58.280000 18.338790
58.300000 17.639440
58.320000 16.866720
58.340000 15.996480
58.360000 15.311730
58.380000 14.863550
58.400000 14.451670
58.420000 13.968780
58.440000 13.640270
58.460000 13.455120
58.480000 13.078680
58.500000 12.618480
58.520000 12.064010
58.540000 11.685740
58.560000 11.354460
58.580000 10.896750
58.600000 10.495370
58.620000 10.253940
58.640000 10.023720
58.660000 9.632720
58.680000 9.197887
58.700000 8.656391
58.720000 8.198145
58.740000 7.808277
58.760000 7.280504
58.780000 6.856104
58.800000 6.603287
58.820000 6.399776
58.840000 6.181422
58.860000 5.875392
58.880000 5.532464
58.900000 5.270951
58.920000 5.003837
58.940000 4.611266
58.960000 4.255161
58.980000 4.108336
59.000000 3.955069
59.020000 3.676808
59.040000 3.398603
59.060000 3.056067
59.080000 2.735796
59.100000 2.280798
59.120000 1.632764
59.140000 1.136961
59.160000 0.712043
59.180000 0.208006
59.200000 -0.230131
59.220000 -0.768239
59.240000 -1.251719
59.260000 -1.734835
59.280000 -2.425383
59.300000 -3.148209
59.320000 -3.837426
59.340000 -4.527750
59.360000 -5.146321
59.380000 -5.785029
59.400000 -6.340906
59.420000 -6.821600
59.440000 -7.315989
59.460000 -7.909731
59.480000 -8.547011
59.500000 -9.132715
59.520000 -9.709304
59.540000 -10.340140
59.560000 -10.876500
59.580000 -11.352990
59.600000 -11.723700
59.620000 -12.055010
59.640000 -12.514290
59.660000 -12.916920
59.680000 -13.318690
59.700000 -13.810390
59.720000 -14.334640
59.740000 -14.856610
59.760000 -15.293920
59.780000 -15.698980
59.800000 -16.156470
59.820000 -16.589650
59.840000 -17.128740
59.860000 -17.741720
59.880000 -18.155480
59.900000 -18.321420
59.920000 -18.620220
59.940000 -18.801070
59.960000 -18.827290
59.980000 -18.623380
60.000000 -18.438750
60.020000 -18.308410
60.040000 -18.102710
60.060000 -17.852580
60.080000 -17.640560
60.100000 -17.279100
60.120000 -16.803520
60.140000 -16.303110
60.160000 -15.687370
60.180000 -14.870930
60.200000 -13.908970
60.220000 -13.326120
60.240000 -12.820420
60.260000 -12.188640
60.280000 -11.691020
60.300000 -11.281550
60.320000 -10.766660
60.340000 -10.106780
60.360000 -9.542944
60.380000 -8.919626
60.400000 -8.219710
60.420000 -7.651719
60.440000 -7.189608
60.460000 -6.821264
60.480000 -6.499158
60.500000 -6.251103
60.520000 -6.034065
60.540000 -5.719927
60.560000 -5.341444
60.580000 -5.101062
60.600000 -4.778229
60.620000 -4.457159
60.640000 -4.324057
60.660000 -4.153889
60.680000 -4.017790
60.700000 -3.823871
60.720000 -3.637612
60.740000 -3.402468
60.760000 -2.986050
60.780000 -2.671352
60.800000 -2.433043
60.820000 -2.132811
60.840000 -1.937772
60.860000 -1.786858
60.880000 -1.561305
60.900000 -1.305436
60.920000 -1.028673
60.940000 -0.679611
60.960000 -0.224530
60.980000 0.174314
61.000000 0.492218
61.020000 0.855340
61.040000 1.145699
61.060000 1.345471
61.080000 1.656010
61.100000 2.042013
61.120000 2.546540
61.140000 3.039249
61.160000 3.631549
61.180000 4.277146
61.200000 4.754325
61.220000 5.275250
61.240000 5.684891
61.260000 6.264616
61.280000 6.701899
61.300000 7.308399
61.320000 8.103972
61.340000 8.714603
61.360000 9.529389
61.380000 10.214920
61.400000 10.818570
61.420000 11.375020
61.440000 11.870980
61.460000 12.421150
61.480000 12.940090
61.500000 13.514380
61.520000 14.253090
61.540000 14.984250
61.560000 15.567320
61.580000 16.220270
61.600000 16.757950
61.620000 17.196180
61.640000 17.548420
61.660000 17.886080
61.680000 18.394220
61.700000 18.841740
61.720000 19.358690
61.740000 19.916060
61.760000 20.498580
61.780000 20.819290
61.800000 20.929730
61.820000 21.043110
61.840000 21.017950
61.860000 20.836770
61.880000 20.749630
61.900000 20.602270
61.920000 20.483230
61.940000 20.398540
61.960000 20.260880
61.980000 20.196170
62.000000 20.063810
62.020000 19.786140
62.040000 19.672920
62.060000 19.470980
62.080000 18.971400
62.100000 18.410280
62.120000 17.951380
62.140000 17.427530
62.160000 16.603480
62.180000 15.844470
62.200000 15.229390
62.220000 14.656600
62.240000 14.026630
62.260000 13.426890
62.280000 13.248500
62.300000 13.024260
62.320000 12.680800
62.340000 12.316950
62.360000 11.906740
62.380000 11.637920
62.400000 11.214260
62.420000 10.638760
62.440000 10.265840
62.460000 9.896809
62.480000 9.573205
62.500000 9.175566
62.520000 8.750522
62.540000 8.387694
62.560000 8.105610
62.580000 7.644354
62.600000 7.146436
62.620000 6.704308
62.640000 6.378197
62.660000 6.087361
62.680000 5.709915
62.700000 5.497470
62.720000 5.300890
62.740000 5.122487
62.760000 4.863103
62.780000 4.432107
62.800000 4.163719
62.820000 3.845885
62.840000 3.476378
62.860000 3.158081
62.880000 2.792803
62.900000 2.588172
62.920000 2.323369
62.940000 1.911866
62.960000 1.496246
62.980000 1.104389
63.000000 0.594149
63.020000 0.063715
63.040000 -0.544899
63.060000 -1.182444
63.080000 -1.619573
63.100000 -2.172454
63.120000 -2.782105
63.140000 -3.329244
63.160000 -3.939721
63.180000 -4.518340
63.200000 -5.153155
63.220000 -5.892112
63.240000 -6.531170
63.260000 -7.050863
63.280000 -7.663524
63.300000 -8.226348
63.320000 -8.732219
63.340000 -9.209272
63.360000 -9.635044
63.380000 -10.173880
63.400000 -10.702860
63.420000 -11.188490
63.440000 -11.644490
63.460000 -12.107530
63.480000 -12.583790
63.500000 -12.976250
63.520000 -13.324600
63.540000 -13.706230
63.560000 -14.141290
63.580000 -14.602180
63.600000 -15.068420
63.620000 -15.555720
63.640000 -16.115970
63.660000 -16.726170
63.680000 -17.377900
63.700000 -18.041500
63.720000 -18.191480
63.740000 -18.282990
63.760000 -18.560510
63.780000 -18.642560
63.800000 -18.592620
63.820000 -18.374170
63.840000 -18.301480
63.860000 -18.376690
63.880000 -18.164630
63.900000 -17.765570
63.920000 -17.433740
63.940000 -16.947040
63.960000 -16.354730
63.980000 -15.785140
64.000000 -14.988390
64.020000 -14.132300
64.040000 -13.411250
64.060000 -12.843610
64.080000 -12.336670
64.100000 -11.760290
64.120000 -11.265500
64.140000 -10.797450
64.160000 -10.213780
64.180000 -9.537469
64.200000 -8.986366
64.220000 -8.401152
64.240000 -7.809117
64.260000 -7.289998
64.280000 -6.943751
64.300000 -6.651487
64.320000 -6.360917
64.340000 -6.150923
64.360000 -5.894171
64.380000 -5.593939
64.400000 -5.283876
64.420000 -4.922981
64.440000 -4.685050
64.460000 -4.365297
64.480000 -4.122899
64.500000 -3.995819
64.520000 -3.739949
64.540000 -3.586164
64.560000 -3.466939
64.580000 -3.228742
64.600000 -3.062018
64.620000 -2.811358
64.640000 -2.633445
64.660000 -2.459579
64.680000 -2.189356
64.700000 -2.046354
64.720000 -1.837844
64.740000 -1.550523
64.760000 -1.278871
64.780000 -0.988526
64.800000 -0.604511
64.820000 -0.228899
64.840000 0.065228
64.860000 0.491812
64.880000 0.896313
64.900000 1.200046
64.920000 1.775963
64.940000 2.174863
64.960000 2.743315
64.980000 3.319652
65.000000 3.801634
65.020000 4.474272
65.040000 5.029547
65.060000 5.468216
65.080000 6.172180
65.100000 6.774591
65.120000 7.265857
65.140000 8.073795
65.160000 8.639965
65.180000 9.333258
65.200000 10.059770
65.220000 10.541160
65.240000 11.267770
65.260000 11.861010
65.280000 12.402140
65.300000 13.038020
65.320000 13.634170
65.340000 14.197300
65.360000 14.862370
65.380000 15.446550
65.400000 15.916070
65.420000 16.505590
65.440000 17.011260
65.460000 17.438530
65.480000 17.888210
65.500000 18.363580
65.520000 18.790160
65.540000 19.287580
65.560000 19.669560
65.580000 20.017700
65.600000 20.570830
65.620000 20.692660
65.640000 20.829940
65.660000 20.968020
65.680000 20.919150
65.700000 20.939350
65.720000 20.842460
65.740000 20.562210
65.760000 20.411590
65.780000 20.215530
65.800000 19.937910
65.820000 19.879560
65.840000 19.710870
65.860000 19.533520
65.880000 19.581760
65.900000 19.406850
65.920000 18.973030
65.940000 18.498740
65.960000 17.899060
65.980000 17.215230
66.000000 16.483390
66.020000 15.716800
66.040000 15.131800
66.060000 14.696430
66.080000 14.104150
66.100000 13.612850
66.120000 13.343070
66.140000 12.892560
66.160000 12.433810
66.180000 12.012060
66.200000 11.548910
66.220000 11.136610
66.240000 10.695390
66.260000 10.234670
66.280000 9.895969
66.300000 9.527344
66.320000 9.052224
66.340000 8.678054
66.360000 8.301139
66.380000 7.784681
66.400000 7.420846
66.420000 7.105574
66.440000 6.767589
66.460000 6.455608
66.480000 6.177921
66.500000 5.904253
66.520000 5.731578
66.540000 5.441666
66.560000 5.087997
66.580000 4.972427
66.600000 4.692668
66.620000 4.367720
66.640000 4.200408
66.660000 3.890723
66.680000 3.618134
66.700000 3.323741
66.720000 2.871152
66.740000 2.579084
66.760000 2.199103
66.780000 1.686733
66.800000 1.358873
66.820000 0.963278
66.840000 0.390666
66.860000 -0.039602
66.880000 -0.621161
66.900000 -1.193479
66.920000 -1.762198
66.940000 -2.465307
66.960000 -3.070630
66.980000 -3.674763
67.000000 -4.284414
67.020000 -4.909342
67.040000 -5.511781
67.060000 -6.087823
67.080000 -6.701143
67.100000 -7.326715
67.120000 -7.959765
67.140000 -8.592886
67.160000 -9.128318
67.180000 -9.650924
67.200000 -10.250790
67.220000 -10.664870
67.240000 -11.054050
67.260000 -11.527800
67.280000 -11.931690
67.300000 -12.460270
67.320000 -12.855790
67.340000 -13.253420
67.360000 -13.795510
67.380000 -14.184180
67.400000 -14.580750
67.420000 -15.026230
67.440000 -15.389110
67.460000 -15.870650
67.480000 -16.353800
67.500000 -17.031520
67.520000 -17.697120
67.540000 -17.961310
67.560000 -18.057300
67.580000 -18.409200
67.600000 -18.575210
67.620000 -18.400470
67.640000 -18.187450
67.660000 -18.123000
67.680000 -18.178460
67.700000 -18.041740
67.720000 -17.702520
67.740000 -17.447130
67.760000 -17.145090
67.780000 -16.645820
67.800000 -16.075350
67.820000 -15.345810
67.840000 -14.457160
67.860000 -13.666280
67.880000 -13.223110
67.900000 -12.813780
67.920000 -12.276600
67.940000 -11.883140
67.960000 -11.506220
67.980000 -10.954060
68.000000 -10.247960
68.020000 -9.623729
68.040000 -8.965249
68.060000 -8.320912
68.080000 -7.706725
68.100000 -7.392965
68.120000 -7.088630
68.140000 -6.759775
68.160000 -6.547120
68.180000 -6.205508
68.200000 -5.927317
68.220000 -5.533864
68.240000 -5.111215
68.260000 -4.928779
68.280000 -4.553125
68.300000 -4.363365
68.320000 -4.295561
68.340000 -4.098253
68.360000 -3.993200
68.380000 -3.887503
68.400000 -3.688179
68.420000 -3.384558
68.440000 -3.145044
68.460000 -2.888908
68.480000 -2.638052
68.500000 -2.372562
68.520000 -2.186220
68.540000 -1.976841
68.560000 -1.669649
68.580000 -1.370537
68.600000 -0.996718
68.620000 -0.586489
68.640000 -0.134838
68.660000 0.250534
68.680000 0.660497
68.700000 1.122314
68.720000 1.417477
68.740000 1.929944
68.760000 2.332079
68.780000 2.811134
68.800000 3.357713
68.820000 3.784424
68.840000 4.432359
68.860000 4.952178
68.880000 5.449004
68.900000 5.998370
68.920000 6.639892
68.940000 7.117337
68.960000 7.814481
68.980000 8.487860
69.000000 9.058764
69.020000 9.826624
69.040000 10.369800
69.060000 10.998400
69.080000 11.595140
69.100000 12.132910
69.120000 12.730610
69.140000 13.312330
69.160000 13.860010
69.180000 14.479610
69.200000 15.114020
69.220000 15.602270
69.240000 16.164770
69.260000 16.676080
69.280000 17.133230
69.300000 17.586370
69.320000 18.051380
69.340000 18.512900
69.360000 19.004570
69.380000 19.492310
69.400000 19.876830
69.420000 20.434230
69.440000 20.753370
69.460000 20.881710
69.480000 21.051740
69.500000 21.046920
69.520000 21.026910
69.540000 20.961710
69.560000 20.692380
69.580000 20.494010
69.600000 20.371940
69.620000 20.098500
69.640000 20.026970
69.660000 20.013930
69.680000 19.837210
69.700000 19.845790
69.720000 19.857660
69.740000 19.393320
69.760000 18.825370
69.780000 18.213070
69.800000 17.470360
69.820000 16.622490
69.840000 15.721800
69.860000 15.110460
69.880000 14.651370
69.900000 14.105130
69.920000 13.555800
69.940000 13.262910
69.960000 12.954860
69.980000 12.426350
70.000000 11.878710
70.020000 11.433800
70.040000 11.100580
70.060000 10.655320
70.080000 10.240940
70.100000 9.997493
70.120000 9.733404
70.140000 9.413861
70.160000 9.025072
70.180000 8.628916
70.200000 8.180444
70.220000 7.810083
70.240000 7.487838
70.260000 7.133063
70.280000 6.800819
70.300000 6.607292
70.320000 6.445918
70.340000 6.161999
70.360000 5.861781
70.380000 5.524216
70.400000 5.351330
70.420000 5.118188
70.440000 4.646051
70.460000 4.489885
70.480000 4.375674
70.500000 4.042562
70.520000 3.757411
70.540000 3.340727
70.560000 3.003456
70.580000 2.608743
70.600000 1.950627
70.620000 1.440764
70.640000 1.016042
70.660000 0.484040
70.680000 -0.022952
70.700000 -0.541090
70.720000 -1.088580
70.740000 -1.622696
70.760000 -2.267593
70.780000 -2.884021
70.800000 -3.578672
70.820000 -4.224522
70.840000 -4.842238
70.860000 -5.438459
70.880000 -6.010651
70.900000 -6.693847
70.920000 -7.164612
70.940000 -7.717801
70.960000 -8.413460
70.980000 -8.984532
71.000000 -9.525734
71.020000 -10.011620
71.040000 -10.532530
71.060000 -11.053630
71.080000 -11.398500
71.100000 -11.783650
71.120000 -12.284720
71.140000 -12.744670
71.160000 -13.103940
71.180000 -13.528220
71.200000 -14.051550
71.220000 -14.486890
71.240000 -14.862530
71.260000 -15.362930
71.280000 -15.791510
71.300000 -16.289430
71.320000 -16.913040
71.340000 -17.458650
71.360000 -18.013480
71.380000 -18.201880
71.400000 -18.290930
71.420000 -18.663240
71.440000 -18.628050
71.460000 -18.459040
71.480000 -18.342980
71.500000 -18.202180
71.520000 -18.121270
71.540000 -17.990040
71.560000 -17.668900
71.580000 -17.203420
71.600000 -16.795600
71.620000 -16.272290
71.640000 -15.640510
71.660000 -14.809370
71.680000 -13.907530
71.700000 -13.351060
71.720000 -12.913580
71.740000 -12.302590
71.760000 -11.830740
71.780000 -11.452540
71.800000 -10.913170
71.820000 -10.338430
71.840000 -9.796027
71.860000 -9.168424
71.880000 -8.507563
71.900000 -8.001229
71.920000 -7.545084
71.940000 -7.216663
71.960000 -6.903590
71.980000 -6.621254
72.000000 -6.437894
72.020000 -6.042355
72.040000 -5.612367
72.060000 -5.339105
72.080000 -4.893210
72.100000 -4.541698
72.120000 -4.385588
72.140000 -4.191670
72.160000 -4.132365
72.180000 -3.989559
72.200000 -3.825818
72.220000 -3.685462
72.240000 -3.322257
72.260000 -3.054246
72.280000 -2.765021
72.300000 -2.471636
72.320000 -2.299633
72.340000 -2.082006
72.360000 -1.889558
72.380000 -1.550719
72.400000 -1.305520
72.420000 -0.938408
72.440000 -0.414192
72.460000 -0.068602
72.480000 0.373050
72.500000 0.748270
72.520000 1.100455
72.540000 1.463954
72.560000 1.768975
72.580000 2.219309
72.600000 2.693309
72.620000 3.219444
72.640000 3.745074
72.660000 4.357932
72.680000 4.864559
72.700000 5.403059
72.720000 5.871948
72.740000 6.427839
72.760000 6.955808
72.780000 7.508941
72.800000 8.242325
72.820000 8.768320
72.840000 9.539807
72.860000 10.166710
72.880000 10.753130
72.900000 11.359750
72.920000 11.799210
72.940000 12.509140
72.960000 12.984270
72.980000 13.549390
73.000000 14.290170
73.020000 14.867360
73.040000 15.492970
73.060000 16.055290
73.080000 16.535570
73.100000 17.045980
73.120000 17.429020
73.140000 17.779370
73.160000 18.255460
73.180000 18.592070
73.200000 19.038470
73.220000 19.484240
73.240000 19.816770
73.260000 20.112400
73.280000 20.175150
73.300000 20.248360
73.320000 20.218230
73.340000 20.031340
73.360000 19.971350
73.380000 19.782460
73.400000 19.562590
73.420000 19.433160
73.440000 19.345580
73.460000 19.392370
73.480000 19.264350
73.500000 19.272610
73.520000 19.381540
73.540000 19.307300
73.560000 19.134590
73.580000 18.627980
73.600000 18.211350
73.620000 17.644450
73.640000 16.808580
73.660000 16.070850
73.680000 15.515030
73.700000 14.897900
73.720000 14.285070
73.740000 13.849330
73.760000 13.488520
73.780000 13.222270
73.800000 12.781180
73.820000 12.396750
73.840000 12.055220
73.860000 11.673960
73.880000 11.306680
73.900000 10.838840
73.920000 10.457970
73.940000 10.069080
73.960000 9.714933
73.980000 9.379595
74.000000 8.920326
74.020000 8.559502
74.040000 8.173975
74.060000 7.823107
74.080000 7.402529
74.100000 7.018879
74.120000 6.873412
74.140000 6.649610
74.160000 6.325503
74.180000 6.022316
74.200000 5.858868
74.220000 5.603559
74.240000 5.319543
74.260000 5.035512
74.280000 4.713421
74.300000 4.536657
74.320000 4.218388
74.340000 3.819460
74.360000 3.457179
74.380000 3.098483
74.400000 2.652336
74.420000 2.147458
74.440000 1.673864
74.460000 1.191953
74.480000 0.802813
74.500000 0.286691
74.520000 -0.254777
74.540000 -0.796497
74.560000 -1.370439
74.580000 -1.986826
74.600000 -2.736482
74.620000 -3.421092
74.640000 -4.077584
74.660000 -4.669212
74.680000 -5.292194
74.700000 -5.895473
74.720000 -6.479834
74.740000 -7.026805
74.760000 -7.582417
74.780000 -8.200147
74.800000 -8.777352
74.820000 -9.340329
74.840000 -9.753527
74.860000 -10.271470
74.880000 -10.769260
74.900000 -11.123590
74.920000 -11.519270
74.940000 -11.858120
74.960000 -12.346600
74.980000 -12.796610
75.000000 -13.131030
75.020000 -13.535560
75.040000 -13.996380
75.060000 -14.425780
75.080000 -14.793830
75.100000 -15.221200
75.120000 -15.656000
75.140000 -16.226180
75.160000 -16.836770
75.180000 -17.412680
75.200000 -17.830750
75.220000 -17.897870
75.240000 -18.207740
75.260000 -18.330450
75.280000 -18.226170
75.300000 -18.022980
75.320000 -17.832780
75.340000 -17.866050
75.360000 -17.748450
75.380000 -17.578760
75.400000 -17.360310
75.420000 -17.024140
75.440000 -16.553670
75.460000 -16.088380
75.480000 -15.463080
75.500000 -14.573890
75.520000 -13.886690
75.540000 -13.374760
75.560000 -13.015750
75.580000 -12.573050
75.600000 -12.144760
75.620000 -11.810900
75.640000 -11.310210
75.660000 -10.638050
75.680000 -9.982818
75.700000 -9.358044
75.720000 -8.679328
75.740000 -8.132511
75.760000 -7.762416
75.780000 -7.335271
75.800000 -7.037084
75.820000 -6.722554
75.840000 -6.269741
75.860000 -5.780015
75.880000 -5.305917
75.900000 -4.830405
75.920000 -4.459372
75.940000 -4.108742
75.960000 -3.937102
75.980000 -3.893720
76.000000 -3.704352
76.020000 -3.627670
76.040000 -3.458495
76.060000 -3.228084
76.080000 -2.985280
76.100000 -2.692399
76.120000 -2.489504
76.140000 -2.247610
76.160000 -2.059965
76.180000 -1.906026
76.200000 -1.658559
76.220000 -1.388448
76.240000 -1.055350
76.260000 -0.677791
76.280000 -0.259958
76.300000 0.229739
76.320000 0.567514
76.340000 0.888220
76.360000 1.300829
76.380000 1.483573
76.400000 1.911011
76.420000 2.304212
76.440000 2.705394
76.460000 3.286170
76.480000 3.672943
76.500000 4.287817
76.520000 4.760542
76.540000 5.208944
76.560000 5.704131
76.580000 6.233080
76.600000 6.728547
76.620000 7.349807
76.640000 8.016899
76.660000 8.608023
76.680000 9.371305
76.700000 9.980157
76.720000 10.634200
76.740000 11.288240
76.760000 11.817270
76.780000 12.506350
76.800000 13.113020
76.820000 13.718440
76.840000 14.461190
76.860000 15.155750
76.880000 15.759290
76.900000 16.390230
76.920000 16.989260
76.940000 17.505990
76.960000 17.953730
76.980000 18.425450
77.000000 18.852700
77.020000 19.314300
77.040000 19.783020
77.060000 20.129540
77.080000 20.560950
77.100000 20.721570
77.120000 20.783750
77.140000 20.825690
77.160000 20.723390
77.180000 20.564100
77.200000 20.382780
77.220000 20.133400
77.240000 19.871200
77.260000 19.772820
77.280000 19.655900
77.300000 19.594910
77.320000 19.523660
77.340000 19.430800
77.360000 19.506580
77.380000 19.253900
77.400000 18.780950
77.420000 18.361380
77.440000 17.802750
77.460000 17.112550
77.480000 16.328300
77.500000 15.704960
77.520000 15.224190
77.540000 14.649430
77.560000 14.122040
77.580000 13.758430
77.600000 13.438930
77.620000 13.031550
77.640000 12.635530
77.660000 12.299410
77.680000 11.980510
77.700000 11.530930
77.720000 11.083860
77.740000 10.727630
77.760000 10.266230
77.780000 9.818852
77.800000 9.329505
77.820000 8.966131
77.840000 8.665899
77.860000 8.168990
77.880000 7.929784
77.900000 7.626289
77.920000 7.221998
77.940000 6.965666
77.960000 6.625931
77.980000 6.313936
78.000000 5.973626
78.020000 5.639058
78.040000 5.485413
78.060000 5.220651
78.080000 4.843064
78.100000 4.589239
78.120000 4.416634
78.140000 4.165105
78.160000 3.665269
78.180000 3.252646
78.200000 3.066765
78.220000 2.678550
78.240000 2.199327
78.260000 1.732917
78.280000 1.385969
78.300000 1.045113
78.320000 0.385023
78.340000 -0.184690
78.360000 -0.595563
78.380000 -1.245109
78.400000 -1.865150
78.420000 -2.463780
78.440000 -3.085040
78.460000 -3.641589
78.480000 -4.228582
78.500000 -4.808140
78.520000 -5.379491
78.540000 -6.015132
78.560000 -6.591356
78.580000 -7.068647
78.600000 -7.739773
78.620000 -8.378494
78.640000 -8.836852
78.660000 -9.274317
78.680000 -9.793828
78.700000 -10.381270
78.720000 -10.788950
78.740000 -11.118950
78.760000 -11.615650
78.780000 -12.193320
78.800000 -12.569340
78.820000 -12.910500
78.840000 -13.362420
78.860000 -13.793300
78.880000 -14.225210
78.900000 -14.591590
78.920000 -14.995900
78.940000 -15.486170
78.960000 -16.028010
78.980000 -16.658350
79.000000 -17.289480
79.020000 -17.818530
79.040000 -17.963420
79.060000 -18.148390
79.080000 -18.413950
79.100000 -18.397100
79.120000 -18.237770
79.140000 -18.145580
79.160000 -18.096770
79.180000 -18.127530
79.200000 -18.033000
79.220000 -17.687900
79.240000 -17.405330
79.260000 -17.077600
79.280000 -16.469060
79.300000 -15.928870
79.320000 -15.145940
79.340000 -14.252630
79.360000 -13.732490
79.380000 -13.316150
79.400000 -12.898960
79.420000 -12.479000
79.440000 -11.947940
79.460000 -11.535760
79.480000 -10.914000
79.500000 -10.117670
79.520000 -9.558894
79.540000 -8.824739
79.560000 -8.148461
79.580000 -7.683801
79.600000 -7.210907
79.620000 -6.901895
79.640000 -6.483489
79.660000 -6.056232
79.680000 -5.713569
79.700000 -5.288987
79.720000 -4.835068
79.740000 -4.555141
79.760000 -4.326732
79.780000 -4.035826
79.800000 -3.912947
79.820000 -3.852382
79.840000 -3.675169
79.860000 -3.539561
79.880000 -3.446635
79.900000 -3.209389
79.920000 -2.963196
79.940000 -2.791221
79.960000 -2.684487
79.980000 -2.538446
80.000000 -2.336322
80.020000 -2.254514
80.040000 -2.032855
80.060000 -1.657943
80.080000 -1.373506
80.100000 -0.942917
80.120000 -0.485049
80.140000 -0.104605
80.160000 0.230019
80.180000 0.575959
80.200000 0.893065
80.220000 1.310869
80.240000 1.691159
80.260000 2.204158
80.280000 2.915613
80.300000 3.347491
80.320000 4.065779
80.340000 4.652983
80.360000 5.205807
80.380000 5.679163
80.400000 6.254562
80.420000 6.827033
80.440000 7.349079
80.460000 8.131223
80.480000 8.715583
80.500000 9.553853
80.520000 10.188020
80.540000 10.785660
80.560000 11.475040
80.580000 11.881670
80.600000 12.462450
80.620000 13.016380
80.640000 13.594450
80.660000 14.154340
80.680000 14.895320
80.700000 15.483930
80.720000 16.043430
80.740000 16.586720
80.760000 17.012270
80.780000 17.538240
80.800000 17.788480
80.820000 18.235090
80.840000 18.739840
80.860000 19.224070
80.880000 19.625120
80.900000 20.061640
80.920000 20.550960
80.940000 20.633950
80.960000 20.738920
80.980000 20.690950
81.000000 20.613390
81.020000 20.525360
81.040000 20.287940
81.060000 20.165760
81.080000 20.056180
81.100000 19.808530
81.120000 19.787710
81.140000 19.754860
81.160000 19.581550
81.180000 19.435230
81.200000 19.459110
81.220000 19.397760
81.240000 19.065680
81.260000 18.496160
81.280000 18.141820
81.300000 17.587430
81.320000 16.681300
81.340000 15.961410
81.360000 15.287710
81.380000 14.829890
81.400000 14.158090
81.420000 13.554250
81.440000 13.355570
81.460000 13.031290
81.480000 12.615380
81.500000 12.157900
81.520000 11.761290
81.540000 11.383880
81.560000 10.833200
81.580000 10.337350
81.600000 9.953999
81.620000 9.558306
81.640000 9.166351
81.660000 8.862927
81.680000 8.393352
81.700000 7.975757
81.720000 7.628838
81.740000 7.139000
81.760000 6.797892
81.780000 6.370215
81.800000 6.163176
81.820000 6.012835
81.840000 5.714774
81.860000 5.514554
81.880000 5.316378
81.900000 5.132276
81.920000 4.756775
81.940000 4.428481
81.960000 4.198797
81.980000 3.900988
82.000000 3.561896
82.020000 3.203802
82.040000 3.056697
82.060000 2.615087
82.080000 2.225877
82.100000 1.864926
82.120000 1.255234
82.140000 0.934837
82.160000 0.139221
82.180000 -0.146517
82.200000 -0.633414
82.220000 -1.473364
82.240000 -1.735787
82.260000 -2.421182
82.280000 -2.885072
82.300000 -3.661306
82.320000 -4.542692
82.340000 -4.766172
82.360000 -5.473188
82.380000 -6.377483
82.400000 -6.939634
82.420000 -7.324979
82.440000 -7.822869
82.460000 -8.484191
82.480000 -9.353941
82.500000 -9.484466
82.520000 -9.884164
82.540000 -10.853370
82.560000 -11.134750
82.580000 -11.685800
82.600000 -11.892600
82.620000 -12.328350
82.640000 -13.129770
82.660000 -13.144410
82.680000 -13.643590
82.700000 -14.153820
82.720000 -14.550000
82.740000 -15.228370
82.760000 -15.502090
82.780000 -16.081660
82.800000 -16.737970
82.820000 -17.342290
82.840000 -17.892630
82.860000 -17.894190
82.880000 -17.976070
82.900000 -18.562080
82.920000 -18.451070
82.940000 -18.285110
82.960000 -18.222020
82.980000 -18.227540
83.000000 -18.335640
83.020000 -17.881420
83.040000 -17.796680
83.060000 -17.537830
83.080000 -16.921430
83.100000 -16.603340
83.120000 -15.889130
83.140000 -15.314880
83.160000 -14.483460
83.180000 -13.732150
83.200000 -13.380690
83.220000 -12.786820
83.240000 -12.311170
83.260000 -11.955890
83.280000 -11.346310
83.300000 -10.690830
83.320000 -10.121620
83.340000 -9.577938
83.360000 -8.831923
83.380000 -8.182377
83.400000 -7.920262
83.420000 -7.530170
83.440000 -7.077203
83.460000 -6.740170
83.480000 -6.657578
83.500000 -5.833116
83.520000 -5.557040
83.540000 -5.413673
83.560000 -4.393444
83.580000 -4.846537
83.600000 -4.072095
83.620000 -4.002106
83.640000 -4.640520
83.660000 -3.275219
83.680000 -3.944384
83.700000 -3.885430
83.720000 -2.929336
83.740000 -3.256833
83.760000 -2.890855
83.780000 -2.635181
83.800000 -2.570584
83.820000 -2.329040
83.840000 -1.951929
83.860000 -2.202870
83.880000 -1.545089
83.900000 -1.233220
83.920000 -1.314818
83.940000 -0.407764
83.960000 -0.351330
83.980000 -0.053885
84.000000 0.696247
84.020000 0.787003
84.040000 0.889340
84.060000 1.781564
84.080000 2.005702
84.100000 2.262888
84.120000 3.343360
84.140000 3.243516
84.160000 4.167066
84.180000 5.127767
84.200000 4.725072
84.220000 6.014656
84.240000 6.649022
84.260000 6.589970
84.280000 7.990153
84.300000 8.136782
84.320000 8.711606
84.340000 10.094000
84.360000 9.926664
84.380000 10.714960
84.400000 11.524910
84.420000 11.804000
84.440000 12.711500
84.460000 12.853030
84.480000 13.566710
84.500000 14.514570
84.520000 14.869920
84.540000 15.336980
84.560000 15.868080
84.580000 16.785570
84.600000 16.997750
84.620000 17.396160
84.640000 18.129050
84.660000 18.311630
84.680000 19.318300
84.700000 19.555450
84.720000 19.556650
84.740000 20.853360
84.760000 20.805260
84.780000 20.865550
84.800000 21.378390
84.820000 20.791810
84.840000 21.274870
84.860000 21.358370
84.880000 20.402680
84.900000 20.613730
84.920000 20.454040
84.940000 20.126910
84.960000 20.024910
84.980000 19.593640
85.000000 19.752770
85.020000 19.815170
85.040000 19.555710
85.060000 18.966450
85.080000 18.589400
85.100000 18.318810
85.120000 17.379680
85.140000 16.508580
85.160000 15.702340
85.180000 15.142610
85.200000 14.751570
85.220000 13.794270
85.240000 13.173050
85.260000 13.199050
85.280000 12.811570
85.300000 12.324710
85.320000 11.868670
85.340000 11.319930
85.360000 11.410830
85.380000 10.908290
85.400000 10.066390
85.420000 9.975354
85.440000 9.773860
85.460000 9.372663
85.480000 8.823885
85.500000 8.370610
85.520000 7.942569
85.540000 7.732911
85.560000 7.279720
85.580000 6.490770
85.600000 6.442711
85.620000 6.265288
85.640000 5.955254
85.660000 5.756546
85.680000 5.369241
85.700000 5.256976
85.720000 5.224404
85.740000 4.800172
85.760000 4.265509
85.780000 4.169754
85.800000 4.003576
85.820000 3.805401
85.840000 3.428514
85.860000 3.000081
85.880000 3.027416
85.900000 2.667515
85.920000 2.065314
85.940000 1.459515
85.960000 1.078931
85.980000 0.664488
86.000000 0.033300
86.020000 -0.557852
86.040000 -1.143683
86.060000 -1.418737
86.080000 -1.977975
86.100000 -2.743582
86.120000 -3.326108
86.140000 -3.967224
86.160000 -4.549246
86.180000 -5.250436
86.200000 -6.011953
86.220000 -6.675895
86.240000 -7.063732
86.260000 -7.602582
86.280000 -8.364533
86.300000 -8.874017
86.320000 -9.446181
86.340000 -9.902536
86.360000 -10.506700
86.380000 -11.278020
86.400000 -11.669780
86.420000 -11.959810
86.440000 -12.440730
86.460000 -12.963100
86.480000 -13.276160
86.500000 -13.586080
86.520000 -13.942890
86.540000 -14.483640
86.560000 -15.041870
86.580000 -15.352420
86.600000 -15.792490
86.620000 -16.286700
86.640000 -16.923250
86.660000 -17.498470
86.680000 -17.792960
86.700000 -17.917870
86.720000 -18.143070
86.740000 -18.550290
86.760000 -18.482620
86.780000 -18.223590
86.800000 -18.231420
86.820000 -18.175600
86.840000 -18.005020
86.860000 -17.712800
86.880000 -17.456160
86.900000 -17.180070
86.920000 -16.736240
86.940000 -16.109460
86.960000 -15.653370
86.980000 -15.011400
87.000000 -14.104640
87.020000 -13.541720
87.040000 -13.013050
87.060000 -12.480710
87.080000 -12.105830
87.100000 -11.601750
87.120000 -11.082280
87.140000 -10.472320
87.160000 -9.971685
87.180000 -9.435524
87.200000 -8.744248
87.220000 -8.265039
87.240000 -7.916439
87.260000 -7.576969
87.280000 -7.174709
87.300000 -6.859535
87.320000 -6.630132
87.340000 -6.203127
87.360000 -5.715446
87.380000 -5.354467
87.400000 -5.007366
87.420000 -4.697345
87.440000 -4.430609
87.460000 -4.271881
87.480000 -4.133346
87.500000 -3.897221
87.520000 -3.678852
87.540000 -3.484962
87.560000 -3.074775
87.580000 -2.814901
87.600000 -2.591141
87.620000 -2.287982
87.640000 -2.145638
87.660000 -1.983787
87.680000 -1.783427
87.700000 -1.500223
87.720000 -1.221542
87.740000 -0.911283
87.760000 -0.532170
87.780000 -0.236853
87.800000 0.087731
87.820000 0.358094
87.840000 0.706204
87.860000 1.002053
87.880000 1.365622
87.900000 1.902231
87.920000 2.331098
87.940000 2.912322
87.960000 3.480285
87.980000 4.082317
88.000000 4.647885
88.020000 5.194381
88.040000 5.705686
88.060000 6.358466
88.080000 6.946734
88.100000 7.493607
88.120000 8.286898
88.140000 8.858670
88.160000 9.497041
88.180000 10.128330
88.200000 10.615870
88.220000 11.147270
88.240000 11.719380
88.260000 12.228230
88.280000 12.781110
88.300000 13.409120
88.320000 14.054770
88.340000 14.719360
88.360000 15.276680
88.380000 15.844820
88.400000 16.524110
88.420000 17.047000
88.440000 17.458350
88.460000 18.078250
88.480000 18.631340
88.500000 19.141890
88.520000 19.673130
88.540000 20.097170
88.560000 20.695210
88.580000 21.003060
88.600000 21.039650
88.620000 21.174520
88.640000 21.195020
88.660000 21.052320
88.680000 20.887350
88.700000 20.683740
88.720000 20.358370
88.740000 20.158900
88.760000 19.935530
88.780000 19.701040
88.800000 19.641430
88.820000 19.497800
88.840000 19.442670
88.860000 19.364980
88.880000 19.044070
88.900000 18.461700
88.920000 18.034280
88.940000 17.392740
88.960000 16.517730
88.980000 15.770410
89.000000 15.151950
89.020000 14.604990
89.040000 14.032610
89.060000 13.507350
89.080000 13.159290
89.100000 12.927350
89.120000 12.502050
89.140000 12.020600
89.160000 11.679370
89.180000 11.398630
89.200000 11.033840
89.220000 10.563610
89.240000 10.214710
89.260000 10.027750
89.280000 9.667378
89.300000 9.192048
89.320000 8.802754
89.340000 8.378536
89.360000 7.998331
89.380000 7.613476
89.400000 7.199103
89.420000 7.021596
89.440000 6.820382
89.460000 6.575463
89.480000 6.412996
89.500000 6.231582
89.520000 6.002095
89.540000 5.700924
89.560000 5.508336
89.580000 5.258292
89.600000 4.921385
89.620000 4.683860
89.640000 4.393906
89.660000 4.056551
89.680000 3.719896
89.700000 3.261314
89.720000 2.802886
89.740000 2.335173
89.760000 1.711940
89.780000 1.227619
89.800000 0.718905
89.820000 0.128859
89.840000 -0.386353
89.860000 -1.009657
89.880000 -1.531030
89.900000 -2.164444
89.920000 -2.873603
89.940000 -3.525810
89.960000 -4.182693
89.980000 -4.787527
90.000000 -5.392780
90.020000 -5.967212
90.040000 -6.499929
90.060000 -6.973074
90.080000 -7.498397
90.100000 -8.103818
90.120000 -8.669918
90.140000 -9.194624
90.160000 -9.698857
90.180000 -10.269260
90.200000 -10.755080
90.220000 -11.140100
90.240000 -11.494890
90.260000 -11.896350
90.280000 -12.392640
90.300000 -12.755360
90.320000 -13.132230
90.340000 -13.595920
90.360000 -14.092650
90.380000 -14.515470
90.400000 -14.899180
90.420000 -15.360380
90.440000 -15.868710
90.460000 -16.407880
90.480000 -17.029420
90.500000 -17.757680
90.520000 -18.310270
90.540000 -18.331040
90.560000 -18.571520
90.580000 -18.807240
90.600000 -18.723210
90.620000 -18.476380
90.640000 -18.234900
90.660000 -18.113680
90.680000 -18.024070
90.700000 -17.783830
90.720000 -17.459440
90.740000 -17.035030
90.760000 -16.488850
90.780000 -15.885500
90.800000 -15.311830
90.820000 -14.329570
90.840000 -13.396600
90.860000 -12.829310
90.880000 -12.393160
90.900000 -11.900870
90.920000 -11.476420
90.940000 -11.249030
90.960000 -10.809250
90.980000 -10.178680
91.000000 -9.706433
91.020000 -8.959340
91.040000 -8.537670
91.060000 -7.940861
91.080000 -7.451723
91.100000 -7.297434
91.120000 -6.879154
91.140000 -6.587211
91.160000 -6.447682
91.180000 -5.945437
91.200000 -5.317764
91.220000 -5.431598
91.240000 -4.636178
91.260000 -4.390111
91.280000 -4.548195
91.300000 -3.811912
91.320000 -4.341408
91.340000 -3.773991
91.360000 -3.465693
91.380000 -3.746195
91.400000 -2.831523
91.420000 -2.658525
91.440000 -2.572796
91.460000 -2.188516
91.480000 -1.905970
91.500000 -2.115937
91.520000 -1.630832
91.540000 -1.391557
91.560000 -1.497422
91.580000 -0.537631
91.600000 -0.571127
91.620000 -0.080659
91.640000 0.639758
91.660000 0.517872
91.680000 1.133404
91.700000 1.555606
91.720000 1.606970
91.740000 2.159627
91.760000 3.060898
91.780000 3.080348
91.800000 4.047981
91.820000 4.789599
91.840000 4.863047
91.860000 6.005610
91.880000 6.140630
91.900000 6.583865
91.920000 7.527215
91.940000 7.767555
91.960000 8.519270
91.980000 9.430525
92.000000 9.855723
92.020000 10.597870
92.040000 11.464470
92.060000 11.487620
92.080000 12.260470
92.100000 12.891650
92.120000 12.997740
92.140000 13.909070
92.160000 14.456780
92.180000 15.001500
92.200000 15.859300
92.220000 16.382290
92.240000 16.744150
92.260000 17.432730
92.280000 17.831560
92.300000 17.953530
92.320000 18.755520
92.340000 19.034650
92.360000 19.435780
92.380000 20.296510
92.400000 20.418830
92.420000 20.695270
92.440000 20.988440
92.460000 20.785450
92.480000 20.744770
92.500000 20.676570
92.520000 20.298100
92.540000 20.290470
92.560000 20.116690
92.580000 19.702320
92.600000 19.842730
92.620000 19.675010
92.640000 19.417220
92.660000 19.326350
92.680000 19.131030
92.700000 18.995680
92.720000 18.562390
92.740000 17.954330
92.760000 17.556540
92.780000 17.099230
92.800000 16.237270
92.820000 15.550530
92.840000 15.124630
92.860000 14.482720
92.880000 13.909850
92.900000 13.446240
92.920000 13.047480
92.940000 12.787690
92.960000 12.478390
92.980000 12.001920
93.000000 11.742050
93.020000 11.478850
93.040000 10.924400
93.060000 10.605600
93.080000 10.258740
93.100000 9.723657
93.120000 9.485908
93.140000 9.232223
93.160000 8.682255
93.180000 8.346300
93.200000 7.995866
93.220000 7.610311
93.240000 7.280924
93.260000 6.737468
93.280000 6.441955
93.300000 6.396962
93.320000 5.968991
93.340000 5.610169
93.360000 5.421067
93.380000 5.186413
93.400000 4.954223
93.420000 4.539807
93.440000 4.253256
93.460000 4.109568
93.480000 3.787280
93.500000 3.358861
93.520000 3.063474
93.540000 2.684053
93.560000 2.226185
93.580000 1.835869
93.600000 1.288408
93.620000 0.695029
93.640000 0.241068
93.660000 -0.272127
93.680000 -0.850326
93.700000 -1.406372
93.720000 -1.999905
93.740000 -2.547478
93.760000 -3.006579
93.780000 -3.795178
93.800000 -4.463363
93.820000 -4.898251
93.840000 -5.525448
93.860000 -6.147436
93.880000 -6.678275
93.900000 -7.183209
93.920000 -7.621850
93.940000 -8.103286
93.960000 -8.729937
93.980000 -9.173787
94.000000 -9.574970
94.020000 -10.173430
94.040000 -10.673480
94.060000 -11.144790
94.080000 -11.647900
94.100000 -12.044880
94.120000 -12.499080
94.140000 -13.024750
94.160000 -13.409950
94.180000 -13.817580
94.200000 -14.350970
94.220000 -14.788940
94.240000 -15.361380
94.260000 -15.822310
94.280000 -16.260670
94.300000 -17.036590
94.320000 -17.697370
94.340000 -18.037160
94.360000 -18.165570
94.380000 -18.248950
94.400000 -18.510060
94.420000 -18.410660
94.440000 -18.085640
94.460000 -17.912030
94.480000 -17.823370
94.500000 -17.671230
94.520000 -17.410230
94.540000 -17.010250
94.560000 -16.714910
94.580000 -16.331930
94.600000 -15.832880
94.620000 -15.234530
94.640000 -14.411480
94.660000 -13.734280
94.680000 -13.244010
94.700000 -12.829230
94.720000 -12.443480
94.740000 -12.040140
94.760000 -11.708820
94.780000 -11.303940
94.800000 -10.699520
94.820000 -10.136380
94.840000 -9.562213
94.860000 -8.937284
94.880000 -8.392385
94.900000 -7.968237
94.920000 -7.565711
94.940000 -7.178868
94.960000 -6.924118
94.980000 -6.632414
95.000000 -6.253595
95.020000 -5.895865
95.040000 -5.540740
95.060000 -5.152987
95.080000 -4.853763
95.100000 -4.539891
95.120000 -4.290281
95.140000 -4.114077
95.160000 -3.810414
95.180000 -3.649011
95.200000 -3.438569
95.220000 -3.142397
95.240000 -2.982591
95.260000 -2.696838
95.280000 -2.517749
95.300000 -2.324475
95.320000 -2.107843
95.340000 -1.957265
95.360000 -1.697572
95.380000 -1.412842
95.400000 -1.135967
95.420000 -0.758926
95.440000 -0.332006
95.460000 0.031634
95.480000 0.382922
95.500000 0.890404
95.520000 1.280538
95.540000 1.686986
95.560000 2.245356
95.580000 2.712592
95.600000 3.259704
95.620000 3.821253
95.640000 4.358394
95.660000 4.944729
95.680000 5.517704
95.700000 5.981384
95.720000 6.659301
95.740000 7.115797
95.760000 7.608883
95.780000 8.264577
95.800000 8.725904
95.820000 9.326004
95.840000 9.896893
95.860000 10.439500
95.880000 11.014450
95.900000 11.547190
95.920000 12.108180
95.940000 12.670820
95.960000 13.243430
95.980000 13.821850
96.000000 14.473710
96.020000 15.066280
96.040000 15.644200
96.060000 16.244700
96.080000 16.826860
96.100000 17.266250
96.120000 17.816430
96.140000 18.298130
96.160000 18.703720
96.180000 19.194960
96.200000 19.553290
96.220000 20.059330
96.240000 20.360080
96.260000 20.466890
96.280000 20.651740
96.300000 20.663610
96.320000 20.564180
96.340000 20.426500
96.360000 20.224680
96.380000 19.985020
96.400000 19.784050
96.420000 19.577280
96.440000 19.547780
96.460000 19.525260
96.480000 19.445790
96.500000 19.434460
96.520000 19.492920
96.540000 19.265230
96.560000 18.780950
96.580000 18.257000
96.600000 17.648360
96.620000 16.864510
96.640000 16.127720
96.660000 15.469410
96.680000 14.962260
96.700000 14.407550
96.720000 13.901140
96.740000 13.541580
96.760000 13.217670
96.780000 12.807000
96.800000 12.303710
96.820000 11.937740
96.840000 11.601750
96.860000 11.198930
96.880000 10.826870
96.900000 10.495650
96.920000 10.284580
96.940000 9.918206
96.960000 9.512123
96.980000 9.115813
97.000000 8.631353
97.020000 8.136880
97.040000 7.643849
97.060000 7.174359
97.080000 6.814178
97.100000 6.565464
97.120000 6.339870
97.140000 6.105678
97.160000 5.803065
97.180000 5.591012
97.200000 5.291844
97.220000 4.926790
97.240000 4.534752
97.260000 4.157333
97.280000 4.003240
97.300000 3.761486
97.320000 3.377066
97.340000 3.135914
97.360000 2.874163
97.380000 2.493537
97.400000 1.990817
97.420000 1.376055
97.440000 0.946642
97.460000 0.530210
97.480000 -0.031886
97.500000 -0.474574
97.520000 -0.901789
97.540000 -1.387832
97.560000 -1.912118
97.580000 -2.576465
97.600000 -3.268960
97.620000 -3.927076
97.640000 -4.568206
97.660000 -5.149360
97.680000 -5.739504
97.700000 -6.303657
97.720000 -6.730662
97.740000 -7.169359
97.760000 -7.759167
97.780000 -8.387554
97.800000 -8.909936
97.820000 -9.406411
97.840000 -10.018190
97.860000 -10.621370
97.880000 -11.051200
97.900000 -11.367750
97.920000 -11.806110
97.940000 -12.337790
97.960000 -12.777720
97.980000 -13.156090
98.000000 -13.740470
98.020000 -14.402250
98.040000 -14.907840
98.060000 -15.410980
98.080000 -15.912600
98.100000 -16.399940
98.120000 -16.986880
98.140000 -17.612220
98.160000 -17.989540
98.180000 -18.201560
98.200000 -18.404580
98.220000 -18.669750
98.240000 -18.741660
98.260000 -18.522290
98.280000 -18.293840
98.300000 -18.195130
98.320000 -18.006230
98.340000 -17.691530
98.360000 -17.285620
98.380000 -16.825870
98.400000 -16.453230
98.420000 -16.094350
98.440000 -15.441540
98.460000 -14.733850
98.480000 -13.997330
98.500000 -13.445860
98.520000 -12.994130
98.540000 -12.563650
98.560000 -12.236970
98.580000 -11.862970
98.600000 -11.499910
98.620000 -11.087750
98.640000 -10.624230
98.660000 -10.087410
98.680000 -9.542566
98.700000 -9.005971
98.720000 -8.477554
98.740000 -8.045606
98.760000 -7.613140
98.780000 -7.313944
98.800000 -6.908435
98.820000 -6.512462
98.840000 -6.212831
98.860000 -5.771739
98.880000 -5.376508
98.900000 -5.019283
98.920000 -4.720647
98.940000 -4.441966
98.960000 -4.156185
98.980000 -3.957351
99.000000 -3.729236
99.020000 -3.530011
99.040000 -3.287430
99.060000 -3.036784
99.080000 -2.756955
99.100000 -2.520284
99.120000 -2.331644
99.140000 -2.090507
99.160000 -1.868245
99.180000 -1.622990
99.200000 -1.265218
99.220000 -0.941012
99.240000 -0.601543
99.260000 -0.202195
99.280000 0.099760
99.300000 0.405047
99.320000 0.790210
99.340000 1.061609
99.360000 1.364726
99.380000 1.860109
99.400000 2.219001
99.420000 2.790913
99.440000 3.301854
99.460000 3.794212
99.480000 4.347191
99.500000 4.909048
99.520000 5.395119
99.540000 5.991606
99.560000 6.661639
99.580000 7.193753
99.600000 7.979902
99.620000 8.591681
99.640000 9.294678
99.660000 9.979233
99.680000 10.446290
99.700000 11.112810
99.720000 11.628420
99.740000 12.122810
99.760000 12.681430
99.780000 13.251950
99.800000 13.743180
99.820000 14.382520
99.840000 14.924310
99.860000 15.335230
99.880000 15.928610
99.900000 16.343220
99.920000 16.785090
99.940000 17.252960
99.960000 17.746760
99.980000 18.196460
100.000000 18.743620
100.020000 19.230490
100.040000 19.637820
100.060000 20.183980
100.080000 20.356820
100.100000 20.521260
100.120000 20.669110
100.140000 20.664380
100.160000 20.658910
100.180000 20.505260
100.200000 20.345200
100.220000 20.198110
100.240000 19.939870
100.260000 19.761680
100.280000 19.662460
100.300000 19.583930
100.320000 19.464750
100.340000 19.439090
100.360000 19.355350
100.380000 18.992910
100.400000 18.431400
100.420000 17.936250
100.440000 17.276840
100.460000 16.443690
100.480000 15.739630
100.500000 15.160300
100.520000 14.690150
100.540000 14.139530
100.560000 13.688440
100.580000 13.440300
100.600000 13.126520
100.620000 12.664550
100.640000 12.239730
100.660000 11.854980
100.680000 11.449820
100.700000 11.022890
100.720000 10.632340
100.740000 10.382320
100.760000 9.976838
100.780000 9.487043
100.800000 9.115337
100.820000 8.611888
100.840000 8.089241
100.860000 7.612524
100.880000 7.230722
100.900000 6.980622
100.920000 6.632470
100.940000 6.380998
100.960000 6.200130
100.980000 5.889788
101.000000 5.558384
101.020000 5.254749
101.040000 4.948650
101.060000 4.688467
101.080000 4.416760
101.100000 4.205687
101.120000 4.066003
101.140000 3.812052
101.160000 3.482077
101.180000 3.169606
101.200000 2.732015
101.220000 2.216047
101.240000 1.707514
101.260000 1.276253
101.280000 0.828579
101.300000 0.301226
101.320000 -0.130819
101.340000 -0.539900
101.360000 -1.058388
101.380000 -1.700261
101.400000 -2.330608
101.420000 -2.977228
101.440000 -3.673909
101.460000 -4.319730
101.480000 -4.964879
101.500000 -5.519735
101.520000 -5.992264
101.540000 -6.607208
101.560000 -7.148060
101.580000 -7.758061
101.600000 -8.419636
101.620000 -8.972545
101.640000 -9.611196
101.660000 -10.172900
101.680000 -10.632880
101.700000 -11.076210
101.720000 -11.424950
101.740000 -11.859520
101.760000 -12.314170
101.780000 -12.683020
101.800000 -13.190900
101.820000 -13.678540
101.840000 -14.201400
101.860000 -14.676760
101.880000 -15.068380
101.900000 -15.551620
101.920000 -15.980220
101.940000 -16.476470
101.960000 -17.104190
101.980000 -17.733130
102.000000 -18.176260
102.020000 -18.475850
102.040000 -18.688460
102.060000 -18.946810
102.080000 -18.881210
102.100000 -18.696190
102.120000 -18.542630
102.140000 -18.393230
102.160000 -18.192870
102.180000 -18.003020
102.200000 -17.846300
102.220000 -17.442860
102.240000 -16.955720
102.260000 -16.521660
102.280000 -15.876760
102.300000 -15.052270
102.320000 -14.161140
102.340000 -13.487850
102.360000 -12.963590
102.380000 -12.446510
102.400000 -11.981770
102.420000 -11.645980
102.440000 -11.138670
102.460000 -10.534980
102.480000 -9.985296
102.500000 -9.333230
102.520000 -8.685560
102.540000 -8.106899
102.560000 -7.732897
102.580000 -7.341699
102.600000 -6.984697
102.620000 -6.738112
102.640000 -6.421860
102.660000 -5.951095
102.680000 -5.482178
102.700000 -5.079763
102.720000 -4.645645
102.740000 -4.322951
102.760000 -4.117676
102.780000 -3.925564
102.800000 -3.714435
102.820000 -3.504356
102.840000 -3.333711
102.860000 -3.012964
102.880000 -2.791081
102.900000 -2.583341
102.920000 -2.329964
102.940000 -2.216845
102.960000 -1.998266
102.980000 -1.898282
103.000000 -1.715384
103.020000 -1.449474
103.040000 -1.181772
103.060000 -0.894493
103.080000 -0.533836
103.100000 -0.171863
103.120000 0.065032
103.140000 0.346597
103.160000 0.747276
103.180000 1.036389
103.200000 1.440358
103.220000 1.984487
103.240000 2.487334
103.260000 3.036812
103.280000 3.580521
103.300000 4.153622
103.320000 4.590443
103.340000 5.080715
103.360000 5.567878
103.380000 6.146133
103.400000 6.613426
103.420000 7.297322
103.440000 7.999563
103.460000 8.585338
103.480000 9.286990
103.500000 9.819440
103.520000 10.402010
103.540000 10.922080
103.560000 11.423740
103.580000 12.021950
103.600000 12.659030
103.620000 13.282750
103.640000 13.941810
103.660000 14.663610
103.680000 15.234710
103.700000 15.765140
103.720000 16.318160
103.740000 16.768290
103.760000 17.176350
103.780000 17.721650
103.800000 18.251440
103.820000 18.672310
103.840000 19.292050
103.860000 19.707250
103.880000 20.210320
103.900000 20.505200
103.920000 20.584210
103.940000 20.770730
103.960000 20.795590
103.980000 20.742580
104.000000 20.730000
104.020000 20.619300
104.040000 20.470650
104.060000 20.345910
104.080000 20.070830
104.100000 19.978410
104.120000 19.841340
104.140000 19.676190
104.160000 19.618580
104.180000 19.558740
104.200000 19.230220
104.220000 18.756330
104.240000 18.195330
104.260000 17.541040
104.280000 16.757740
104.300000 15.963850
104.320000 15.238950
104.340000 14.745030
104.360000 14.293890
104.380000 13.854690
104.400000 13.586860
104.420000 13.370810
104.440000 12.930500
104.460000 12.482560
104.480000 12.032340
104.500000 11.513650
104.520000 11.033200
104.540000 10.475640
104.560000 10.062590
104.580000 9.808700
104.600000 9.396021
104.620000 8.934834
104.640000 8.644894
104.660000 8.128240
104.680000 7.541359
104.700000 7.084429
104.720000 6.609561
104.740000 6.296250
104.760000 5.989730
104.780000 5.738285
104.800000 5.742248
104.820000 5.636033
104.840000 5.367644
104.860000 5.132752
104.880000 4.927757
104.900000 4.564215
104.920000 4.191530
104.940000 3.948921
104.960000 3.751544
104.980000 3.587172
105.000000 3.356215
105.020000 3.149917
105.040000 2.864108
105.060000 2.445702
105.080000 1.888830
105.100000 1.373226
105.120000 0.892393
105.140000 0.263193
105.160000 -0.157342
105.180000 -0.601865
105.200000 -1.103073
105.220000 -1.600865
105.240000 -2.196568
105.260000 -2.878504
105.280000 -3.630961
105.300000 -4.434600
105.320000 -5.169805
105.340000 -5.765284
105.360000 -6.494285
105.380000 -7.086516
105.400000 -7.507345
105.420000 -8.080895
105.440000 -8.680575
105.460000 -9.296947
105.480000 -9.948271
105.500000 -10.536640
105.520000 -11.197230
105.540000 -11.742870
105.560000 -12.135260
105.580000 -12.511270
105.600000 -12.872720
105.620000 -13.156710
105.640000 -13.533550
105.660000 -13.930180
105.680000 -14.358590
105.700000 -14.802370
105.720000 -15.217740
105.740000 -15.672640
105.760000 -16.031560
105.780000 -16.323930
105.800000 -16.804000
105.820000 -17.398620
105.840000 -17.903280
105.860000 -17.919340
105.880000 -18.101440
105.900000 -18.454710
105.920000 -18.513110
105.940000 -18.287570
105.960000 -18.010500
105.980000 -17.894760
106.000000 -17.656770
106.020000 -17.341770
106.040000 -17.149100
106.060000 -16.890930
106.080000 -16.475660
106.100000 -15.958840
106.120000 -15.475010
106.140000 -14.691900
106.160000 -13.708620
106.180000 -13.081360
106.200000 -12.639690
106.220000 -12.033760
106.240000 -11.520430
106.260000 -11.260120
106.280000 -10.863250
106.300000 -10.293440
106.320000 -9.641360
106.340000 -9.191319
106.360000 -8.533651
106.380000 -7.827308
106.400000 -7.498803
106.420000 -7.096304
106.440000 -6.746318
106.460000 -6.447892
106.480000 -6.175078
106.500000 -5.821675
106.520000 -5.274690
106.540000 -4.916918
106.560000 -4.496481
106.580000 -4.084530
106.600000 -3.804575
106.620000 -3.656111
106.640000 -3.556281
106.660000 -3.350109
106.680000 -3.240043
106.700000 -3.149497
106.720000 -2.862176
106.740000 -2.534315
106.760000 -2.441529
106.780000 -2.215907
106.800000 -2.035529
106.820000 -2.025951
106.840000 -1.889712
106.860000 -1.762562
106.880000 -1.494187
106.900000 -1.263174
106.920000 -0.872200
106.940000 -0.406602
106.960000 -0.083782
106.980000 0.331096
107.000000 0.718583
107.020000 1.064368
107.040000 1.435597
107.060000 1.869701
107.080000 2.503844
107.100000 2.973251
107.120000 3.656825
107.140000 4.374189
107.160000 4.900394
107.180000 5.491980
107.200000 6.007542
107.220000 6.541126
107.240000 7.050905
107.260000 7.669140
107.280000 8.322873
107.300000 9.111780
107.320000 9.794949
107.340000 10.529370
107.360000 11.279980
107.380000 11.765730
107.400000 12.301380
107.420000 12.848610
107.440000 13.364040
107.460000 13.832260
107.480000 14.491160
107.500000 15.157130
107.520000 15.725470
107.540000 16.291950
107.560000 16.783130
107.580000 17.268200
107.600000 17.616630
107.620000 17.912130
107.640000 18.358650
107.660000 18.826990
107.680000 19.240790
107.700000 19.740690
107.720000 20.313510
107.740000 20.587640
107.760000 20.789520
107.780000 20.816210
107.800000 20.807170
107.820000 20.721870
107.840000 20.458320
107.860000 20.303050
107.880000 20.253490
107.900000 20.043980
107.920000 19.886000
107.940000 19.873340
107.960000 19.749230
107.980000 19.566740
108.000000 19.467420
108.020000 19.245530
108.040000 18.876220
108.060000 18.317850
108.080000 17.734580
108.100000 17.288280
108.120000 16.514720
108.140000 15.817390
108.160000 15.260220
108.180000 14.634160
108.200000 13.991140
108.220000 13.449370
108.240000 13.062630
108.260000 12.753220
108.280000 12.336350
108.300000 12.025470
108.320000 11.871630
108.340000 11.470420
108.360000 10.970850
108.380000 10.529920
108.400000 10.143600
108.420000 9.613997
108.440000 8.965165
108.460000 8.614185
108.480000 8.238951
108.500000 7.872678
108.520000 7.522832
108.540000 7.132909
108.560000 6.940320
108.580000 6.530498
108.600000 6.103395
108.620000 5.927569
108.640000 5.707660
108.660000 5.452701
108.680000 5.271301
108.700000 5.100096
108.720000 4.961239
108.740000 4.716152
108.760000 4.462523
108.780000 4.273729
108.800000 3.950672
108.820000 3.569360
108.840000 3.213282
108.860000 2.877272
108.880000 2.463206
108.900000 1.937114
108.920000 1.544193
108.940000 1.106854
108.960000 0.537155
108.980000 -0.052905
109.000000 -0.628905
109.020000 -1.176521
109.040000 -1.824149
109.060000 -2.503662
109.080000 -3.089227
109.100000 -3.690083
109.120000 -4.362343
109.140000 -4.982020
109.160000 -5.581336
109.180000 -6.186631
109.200000 -6.842129
109.220000 -7.467085
109.240000 -8.011424
109.260000 -8.606273
109.280000 -9.142728
109.300000 -9.605693
109.320000 -10.022460
109.340000 -10.463270
109.360000 -10.916380
109.380000 -11.285900
109.400000 -11.701630
109.420000 -12.142670
109.440000 -12.602920
109.460000 -13.018710
109.480000 -13.366470
109.500000 -13.836950
109.520000 -14.240980
109.540000 -14.574900
109.560000 -15.044210
109.580000 -15.528000
109.600000 -16.038170
109.620000 -16.598670
109.640000 -17.344630
109.660000 -17.997410
109.680000 -18.187320
109.700000 -18.207680
109.720000 -18.435010
109.740000 -18.444460
109.760000 -18.312610
109.780000 -17.960820
109.800000 -17.819260
109.820000 -17.843400
109.840000 -17.633950
109.860000 -17.283580
109.880000 -16.861500
109.900000 -16.455190
109.920000 -15.969410
109.940000 -15.214460
109.960000 -14.424740
109.980000 -13.501990
110.000000 -12.845960
110.020000 -12.419770
110.040000 -11.908290
110.060000 -11.546880
110.080000 -11.186510
110.100000 -10.790430
110.120000 -10.336670
110.140000 -9.719849
110.160000 -9.217170
110.180000 -8.693626
110.200000 -8.119866
110.220000 -7.772022
110.240000 -7.449987
110.260000 -7.167357
110.280000 -6.916823
110.300000 -6.546672
110.320000 -6.250318
110.340000 -5.853645
110.360000 -5.418855
110.380000 -5.100026
110.400000 -4.748037
110.420000 -4.533758
110.440000 -4.349936
110.460000 -4.222701
110.480000 -4.116107
110.500000 -3.907961
110.520000 -3.800710
110.540000 -3.518094
110.560000 -3.198775
110.580000 -3.030300
110.600000 -2.744044
110.620000 -2.558891
110.640000 -2.323649
110.660000 -2.101947
110.680000 -1.851147
110.700000 -1.512420
110.720000 -1.126207
110.740000 -0.743327
110.760000 -0.313437
110.780000 0.105221
110.800000 0.458666
110.820000 0.907530
110.840000 1.239158
110.860000 1.650227
110.880000 2.069880
110.900000 2.585175
110.920000 3.102418
110.940000 3.614661
110.960000 4.229073
110.980000 4.750096
111.000000 5.349132
111.020000 5.799704
111.040000 6.407240
111.060000 6.979446
111.080000 7.538292
111.100000 8.213296
111.120000 8.809952
111.140000 9.537343
111.160000 10.104660
111.180000 10.759630
111.200000 11.350480
111.220000 11.884310
111.240000 12.494350
111.260000 13.032160
111.280000 13.602980
111.300000 14.197340
111.320000 14.795550
111.340000 15.334430
111.360000 15.903220
111.380000 16.363680
111.400000 16.853680
111.420000 17.304760
111.440000 17.714120
111.460000 18.171010
111.480000 18.612630
111.500000 19.122410
111.520000 19.517440
111.540000 19.985880
111.560000 20.359480
111.580000 20.540990
111.600000 20.712490
111.620000 20.721240
111.640000 20.704900
111.660000 20.703780
111.680000 20.525210
111.700000 20.346860
111.720000 20.178530
111.740000 19.986840
111.760000 19.894230
111.780000 19.773050
111.800000 19.566460
111.820000 19.563220
111.840000 19.579800
111.860000 19.283240
111.880000 18.838740
111.900000 18.365890
111.920000 17.842330
111.940000 17.110320
111.960000 16.180200
111.980000 15.447180
112.000000 14.950710
112.020000 14.343100
112.040000 13.686460
112.060000 13.275710
112.080000 12.976140
112.100000 12.646080
112.120000 12.221960
112.140000 11.747750
112.160000 11.419760
112.180000 11.050710
112.200000 10.615730
112.220000 10.232710
112.240000 9.860610
112.260000 9.541334
112.280000 9.219270
112.300000 8.802334
112.320000 8.274449
112.340000 7.754462
112.360000 7.400849
112.380000 7.013096
112.400000 6.552063
112.420000 6.239494
112.440000 6.169435
112.460000 6.044651
112.480000 5.764164
112.500000 5.433306
112.520000 5.268725
112.540000 5.108722
112.560000 4.671509
112.580000 4.321257
112.600000 4.160190
112.620000 4.023881
112.640000 3.766920
112.660000 3.418544
112.680000 3.181383
112.700000 2.833273
112.720000 2.331308
112.740000 1.764676
112.760000 1.215072
112.780000 0.682328
112.800000 0.116676
112.820000 -0.347606
112.840000 -0.862859
112.860000 -1.384345
112.880000 -1.926163
112.900000 -2.488104
112.920000 -3.133883
112.940000 -3.914137
112.960000 -4.627860
112.980000 -5.240536
113.000000 -5.908832
113.020000 -6.633143
113.040000 -7.131172
113.060000 -7.549971
113.080000 -8.098385
113.100000 -8.772955
113.120000 -9.329253
113.140000 -9.782780
113.160000 -10.422780
113.180000 -11.072590
113.200000 -11.480490
113.220000 -11.805970
113.240000 -12.199470
113.260000 -12.608910
113.280000 -12.876040
113.300000 -13.197430
113.320000 -13.642000
113.340000 -14.125340
113.360000 -14.563920
113.380000 -14.958480
113.400000 -15.491910
113.420000 -15.942620
113.440000 -16.368350
113.460000 -17.052740
113.480000 -17.564660
113.500000 -17.673900
113.520000 -17.864040
113.540000 -18.208070
113.560000 -18.241750
113.580000 -18.178480
113.600000 -18.044470
113.620000 -17.961500
113.640000 -17.828550
113.660000 -17.577570
113.680000 -17.443310
113.700000 -17.234040
113.720000 -16.767210
113.740000 -16.402090
113.760000 -15.972840
113.780000 -15.217260
113.800000 -14.439600
113.820000 -13.791900
113.840000 -13.315550
113.860000 -12.853100
113.880000 -12.359170
113.900000 -12.011680
113.920000 -11.675940
113.940000 -11.104770
113.960000 -10.540330
113.980000 -10.038940
114.000000 -9.348549
114.020000 -8.722669
114.040000 -8.319890
114.060000 -7.853228
114.080000 -7.440759
114.100000 -7.157317
114.120000 -6.866369
114.140000 -6.456616
114.160000 -6.105062
114.180000 -5.700266
114.200000 -5.289744
114.220000 -4.884892
114.240000 -4.524866
114.260000 -4.306581
114.280000 -4.075302
114.300000 -3.856555
114.320000 -3.736980
114.340000 -3.576012
114.360000 -3.279686
114.380000 -3.041083
114.400000 -2.770846
114.420000 -2.454538
114.440000 -2.215375
114.460000 -1.960485
114.480000 -1.822118
114.500000 -1.609799
114.520000 -1.345219
114.540000 -1.230840
114.560000 -0.823762
114.580000 -0.399404
114.600000 -0.034616
114.620000 0.364900
114.640000 0.866584
114.660000 1.197162
114.680000 1.473532
114.700000 1.958399
114.720000 2.279076
114.740000 2.801317
114.760000 3.254200
114.780000 3.825524
114.800000 4.479691
114.820000 5.021341
114.840000 5.599204
114.860000 6.240782
114.880000 6.726279
114.900000 7.249347
114.920000 8.003862
114.940000 8.480131
114.960000 9.192300
114.980000 9.994076
115.000000 10.583720
115.020000 11.336930
115.040000 11.893170
115.060000 12.514710
115.080000 13.113720
115.100000 13.538090
115.120000 14.082500
115.140000 14.685740
115.160000 15.125320
115.180000 15.614830
115.200000 16.147650
115.220000 16.531090
115.240000 16.945430
115.260000 17.297450
115.280000 17.658080
115.300000 18.004490
115.320000 18.408000
115.340000 18.817430
115.360000 19.329390
115.380000 19.786660
115.400000 20.037150
115.420000 20.389040
115.440000 20.515380
115.460000 20.487690
115.480000 20.549180
115.500000 20.424830
115.520000 20.237660
115.540000 20.108180
115.560000 19.909030
115.580000 19.844460
115.600000 19.722590
115.620000 19.589100
115.640000 19.502840
115.660000 19.455420
115.680000 19.069110
115.700000 18.580180
115.720000 18.102190
115.740000 17.468350
115.760000 16.759580
115.780000 15.997640
115.800000 15.341460
115.820000 14.871700
115.840000 14.368740
115.860000 13.775670
115.880000 13.436900
115.900000 13.082710
115.920000 12.700900
115.940000 12.353880
115.960000 11.900760
115.980000 11.588260
116.000000 11.345840
116.020000 10.936530
116.040000 10.605810
116.060000 10.279330
116.080000 9.903265
116.100000 9.488191
116.120000 8.998031
116.140000 8.438863
116.160000 8.039725
116.180000 7.710926
116.200000 7.299521
116.220000 6.933501
116.240000 6.705204
116.260000 6.497226
116.280000 6.272682
116.300000 5.917262
116.320000 5.605197
116.340000 5.346457
116.360000 5.085476
116.380000 4.702260
116.400000 4.362693
116.420000 4.169124
116.440000 3.930465
116.460000 3.646995
116.480000 3.319680
116.500000 2.977242
116.520000 2.631022
116.540000 2.239866
116.560000 1.625455
116.580000 1.147590
116.600000 0.728973
116.620000 0.242608
116.640000 -0.170757
116.660000 -0.742402
116.680000 -1.245683
116.700000 -1.644135
116.720000 -2.296594
116.740000 -2.985210
116.760000 -3.654977
116.780000 -4.260734
116.800000 -4.851298
116.820000 -5.543891
116.840000 -6.170555
116.860000 -6.647720
116.880000 -7.118457
116.900000 -7.749813
116.920000 -8.381589
116.940000 -8.955251
116.960000 -9.488779
116.980000 -10.133400
117.000000 -10.739430
117.020000 -11.242810
117.040000 -11.673090
117.060000 -12.081280
117.080000 -12.615730
117.100000 -13.015330
117.120000 -13.392650
117.140000 -13.927010
117.160000 -14.404660
117.180000 -14.923280
117.200000 -15.367070
117.220000 -15.845870
117.240000 -16.287050
117.260000 -16.762660
117.280000 -17.323410
117.300000 -17.847140
117.320000 -18.115120
117.340000 -18.232840
117.360000 -18.462470
117.380000 -18.695080
117.400000 -18.507820
117.420000 -18.333750
117.440000 -18.171790
117.460000 -18.041900
117.480000 -17.776450
117.500000 -17.623170
117.520000 -17.395010
117.540000 -16.895030
117.560000 -16.463530
117.580000 -16.084620
117.600000 -15.462030
117.620000 -14.652170
117.640000 -13.888620
117.660000 -13.424440
117.680000 -12.964330
117.700000 -12.464270
117.720000 -12.186320
117.740000 -11.885680
117.760000 -11.424380
117.780000 -10.954650
117.800000 -10.471860
117.820000 -9.982496
117.840000 -9.318008
117.860000 -8.855239
117.880000 -8.563058
117.900000 -8.097040
117.920000 -7.745626
117.940000 -7.469690
117.960000 -7.032364
117.980000 -6.511159
118.000000 -6.034401
118.020000 -5.633400
118.040000 -5.148562
118.060000 -4.725786
118.080000 -4.632258
118.100000 -4.361530
118.120000 -4.106543
118.140000 -3.910468
118.160000 -3.579078
118.180000 -3.240505
118.200000 -2.825557
118.220000 -2.582991
118.240000 -2.307517
118.260000 -2.016541
118.280000 -1.900313
118.300000 -1.667283
118.320000 -1.439560
118.340000 -1.148486
118.360000 -0.794131
118.380000 -0.513013
118.400000 -0.073658
118.420000 0.198428
118.440000 0.403451
118.460000 0.733174
118.480000 0.961289
118.500000 1.087557
118.520000 1.489230
118.540000 1.789546
118.560000 2.252105
118.580000 2.714216
118.600000 3.207247
118.620000 3.798959
118.640000 4.243860
118.660000 4.782598
118.680000 5.326909
118.700000 5.903441
118.720000 6.409887
118.740000 7.146576
118.760000 7.848313
118.780000 8.445710
118.800000 9.279667
118.820000 9.883744
118.840000 10.484070
118.860000 11.131040
118.880000 11.649820
118.900000 12.279590
118.920000 12.891510
118.940000 13.437500
118.960000 14.205620
118.980000 14.908430
119.000000 15.396460
119.020000 16.072180
119.040000 16.614360
119.060000 17.014120
119.080000 17.491070
119.100000 17.920820
119.120000 18.365760
119.140000 18.825230
119.160000 19.282240
119.180000 19.718240
119.200000 20.155130
119.220000 20.359330
119.240000 20.462730
119.260000 20.523770
119.280000 20.480550
119.300000 20.339740
119.320000 20.271620
119.340000 20.023160
119.360000 19.860500
119.380000 19.768590
119.400000 19.594940
119.420000 19.511140
119.440000 19.463530
119.460000 19.376190
119.480000 19.414700
119.500000 19.279440
119.520000 18.814530
119.540000 18.496300
119.560000 17.974030
119.580000 17.235830
119.600000 16.536660
119.620000 15.872190
119.640000 15.352210
119.660000 14.885370
119.680000 14.357090
119.700000 13.946250
119.720000 13.769090
119.740000 13.416840
119.760000 12.948240
119.780000 12.598040
119.800000 12.172580
119.820000 11.792070
119.840000 11.299150
119.860000 10.815700
119.880000 10.490930
119.900000 10.139730
119.920000 9.635156
119.940000 9.152740
119.960000 8.683922
119.980000 8.199559
120.000000 7.835430
120.020000 7.379340
120.040000 6.990228
120.060000 6.709937
120.080000 6.391851
120.100000 6.143627
120.120000 5.785939
120.140000 5.420325
120.160000 5.177353
120.180000 4.902901
120.200000 4.603131
120.220000 4.325416
120.240000 4.249518
120.260000 4.102692
120.280000 3.849133
120.300000 3.543272
120.320000 3.215299
120.340000 2.831313
120.360000 2.360757
120.380000 1.816643
120.400000 1.310827
120.420000 0.977911
120.440000 0.520883
120.460000 0.044419
120.480000 -0.296941
120.500000 -0.816466
120.520000 -1.311541
120.540000 -1.907693
120.560000 -2.607889
120.580000 -3.224457
120.600000 -3.857633
120.620000 -4.457047
120.640000 -4.992102
120.660000 -5.555569
120.680000 -6.028309
120.700000 -6.464080
120.720000 -7.123708
120.740000 -7.750037
120.760000 -8.375315
120.780000 -9.020016
120.800000 -9.581271
120.820000 -10.257210
120.840000 -10.699130
120.860000 -11.076310
120.880000 -11.559740
120.900000 -11.965060
120.920000 -12.461950
120.940000 -12.877780
120.960000 -13.410130
120.980000 -13.979620
121.000000 -14.378710
121.020000 -14.882200
121.040000 -15.334880
121.060000 -15.668600
121.080000 -16.154260
121.100000 -16.621250
121.120000 -17.326210
121.140000 -17.968380
121.160000 -18.136010
121.180000 -18.481050
121.200000 -18.867340
121.220000 -18.888790
121.240000 -18.779970
121.260000 -18.583150
121.280000 -18.510530
121.300000 -18.357420
121.320000 -18.131450
121.340000 -18.089590
121.360000 -17.825450
121.380000 -17.321020
121.400000 -16.823970
121.420000 -16.276630
121.440000 -15.565970
121.460000 -14.585090
121.480000 -13.672860
121.500000 -13.180510
121.520000 -12.577710
121.540000 -12.050750
121.560000 -11.634850
121.580000 -11.160670
121.600000 -10.650830
121.620000 -9.959740
121.640000 -9.440691
121.660000 -8.834234
121.680000 -8.105849
121.700000 -7.744198
121.720000 -7.280602
121.740000 -6.919189
121.760000 -6.668627
121.780000 -6.305268
121.800000 -5.957690
121.820000 -5.573774
121.840000 -5.144571
121.860000 -4.846705
121.880000 -4.511521
121.900000 -4.236662
121.920000 -4.134802
121.940000 -3.926460
121.960000 -3.796831
121.980000 -3.592816
122.000000 -3.466463
122.020000 -3.238629
122.040000 -2.917125
122.060000 -2.817393
122.080000 -2.542661
122.100000 -2.351921
122.120000 -2.259317
122.140000 -2.006906
122.160000 -1.875443
122.180000 -1.551097
122.200000 -1.243345
122.220000 -0.936895
122.240000 -0.489796
122.260000 -0.230691
122.280000 0.063449
122.300000 0.483844
122.320000 0.742837
122.340000 1.068317
122.360000 1.562286
122.380000 1.998658
122.400000 2.575247
122.420000 3.072647
122.440000 3.677480
122.460000 4.180467
122.480000 4.738333
122.500000 5.188065
122.520000 5.746449
122.540000 6.351843
122.560000 6.852197
122.580000 7.643191
122.600000 8.266439
122.620000 8.951568
122.640000 9.643418
122.660000 10.223400
122.680000 10.878940
122.700000 11.379330
122.720000 12.022450
122.740000 12.633700
122.760000 13.262040
122.780000 13.950000
122.800000 14.601630
122.820000 15.223760
122.840000 15.803010
122.860000 16.398680
122.880000 16.842200
122.900000 17.366500
122.920000 17.821800
122.940000 18.321220
122.960000 18.809690
122.980000 19.267530
123.000000 19.741130
123.020000 20.119450
123.040000 20.535320
123.060000 20.678360
123.080000 20.776780
123.100000 20.840450
123.120000 20.741940
123.140000 20.786620
123.160000 20.616330
123.180000 20.370510
123.200000 20.315650
123.220000 19.987130
123.240000 19.849550
123.260000 19.641390
123.280000 19.447540
123.300000 19.391290
123.320000 19.276280
123.340000 19.241400
123.360000 19.031080
123.380000 18.602770
123.400000 18.103660
123.420000 17.538430
123.440000 16.748310
123.460000 15.958750
123.480000 15.234080
123.500000 14.655760
123.520000 14.070150
123.540000 13.465300
123.560000 13.143900
123.580000 12.828150
123.600000 12.427760
123.620000 12.043400
123.640000 11.566810
123.660000 11.261930
123.680000 10.789730
123.700000 10.334090
123.720000 10.022150
123.740000 9.665894
123.760000 9.260398
123.780000 8.912821
123.800000 8.574219
123.820000 8.045228
123.840000 7.569226
123.860000 7.108361
123.880000 6.761273
123.900000 6.306864
123.920000 5.849724
123.940000 5.698236
123.960000 5.524986
123.980000 5.268907
124.000000 4.901934
124.020000 4.690442
124.040000 4.513957
124.060000 4.150598
124.080000 3.806745
124.100000 3.628398
124.120000 3.495352
124.140000 3.189323
124.160000 2.914465
124.180000 2.661634
124.200000 2.339682
124.220000 1.904598
124.240000 1.371532
124.260000 0.952719
124.280000 0.438964
124.300000 -0.097856
124.320000 -0.579893
124.340000 -1.065348
124.360000 -1.618201
124.380000 -2.261586
124.400000 -2.804622
124.420000 -3.439479
124.440000 -4.217436
124.460000 -4.906471
124.480000 -5.522648
124.500000 -6.122930
124.520000 -6.758935
124.540000 -7.371792
124.560000 -7.778520
124.580000 -8.296560
124.600000 -8.896843
124.620000 -9.392660
124.640000 -9.930809
124.660000 -10.455260
124.680000 -10.967520
124.700000 -11.487760
124.720000 -11.862360
124.740000 -12.312110
124.760000 -12.768940
124.780000 -13.072440
124.800000 -13.565310
124.820000 -14.063230
124.840000 -14.475990
124.860000 -15.011800
124.880000 -15.461800
124.900000 -15.970840
124.920000 -16.495570
124.940000 -16.927120
124.960000 -17.616460
124.980000 -17.995120
125.000000 -18.136470
125.020000 -18.230810
125.040000 -18.542210
125.060000 -18.559610
125.080000 -18.357810
125.100000 -18.178580
125.120000 -18.107650
125.140000 -17.911590
125.160000 -17.663450
125.180000 -17.442560
125.200000 -17.020950
125.220000 -16.600950
125.240000 -16.177180
125.260000 -15.555140
125.280000 -14.894500
125.300000 -14.031150
125.320000 -13.415760
125.340000 -13.036060
125.360000 -12.383850
125.380000 -11.916430
125.400000 -11.572230
125.420000 -11.045110
125.440000 -10.452950
125.460000 -9.870763
125.480000 -9.337319
125.500000 -8.699213
125.520000 -8.061080
125.540000 -7.678578
125.560000 -7.299983
125.580000 -6.877753
125.600000 -6.571150
125.620000 -6.264042
125.640000 -5.886189
125.660000 -5.501502
125.680000 -5.205387
125.700000 -4.912171
125.720000 -4.585584
125.740000 -4.422683
125.760000 -4.193322
125.780000 -3.999753
125.800000 -3.755017
125.820000 -3.503404
125.840000 -3.360024
125.860000 -3.075195
125.880000 -2.869430
125.900000 -2.761590
125.920000 -2.561874
125.940000 -2.345550
125.960000 -2.184637
125.980000 -1.941483
126.000000 -1.640186
126.020000 -1.344855
126.040000 -1.051023
126.060000 -0.774022
126.080000 -0.407470
126.100000 -0.136617
126.120000 0.148366
126.140000 0.587357
126.160000 0.862299
126.180000 1.321148
126.200000 1.783875
126.220000 2.310513
126.240000 2.828610
126.260000 3.352518
126.280000 3.933266
126.300000 4.441742
126.320000 5.029631
126.340000 5.538177
126.360000 6.224832
126.380000 6.835519
126.400000 7.507807
126.420000 8.260068
126.440000 8.891311
126.460000 9.597431
126.480000 10.151890
126.500000 10.796830
126.520000 11.344390
126.540000 11.910520
126.560000 12.567640
126.580000 13.178370
126.600000 13.822530
126.620000 14.462100
126.640000 15.096060
126.660000 15.650050
126.680000 16.150490
126.700000 16.687030
126.720000 17.197980
126.740000 17.632530
126.760000 18.150280
126.780000 18.709900
126.800000 19.158010
126.820000 19.644520
126.840000 19.994200
126.860000 20.418570
126.880000 20.698070
126.900000 20.740050
126.920000 20.828060
126.940000 20.857380
126.960000 20.814950
126.980000 20.718820
127.000000 20.530970
127.020000 20.353110
127.040000 20.084190
127.060000 19.882010
127.080000 19.702880
127.100000 19.545240
127.120000 19.380280
127.140000 19.383260
127.160000 19.463000
127.180000 19.261990
127.200000 18.881030
127.220000 18.396040
127.240000 17.819160
127.260000 17.049990
127.280000 16.150490
127.300000 15.469460
127.320000 14.971180
127.340000 14.435610
127.360000 13.901590
127.380000 13.600110
127.400000 13.299500
127.420000 12.854220
127.440000 12.344430
127.460000 11.890690
127.480000 11.437520
127.500000 10.986030
127.520000 10.597930
127.540000 10.245620
127.560000 9.948692
127.580000 9.546739
127.600000 9.185998
127.620000 8.834234
127.640000 8.189855
127.660000 7.616851
127.680000 7.255872
127.700000 6.880176
127.720000 6.421384
127.740000 6.077755
127.760000 6.042943
127.780000 6.014530
127.800000 5.691332
127.820000 5.395875
127.840000 5.186861
127.860000 4.938791
127.880000 4.485348
127.900000 4.067446
127.920000 3.908143
127.940000 3.696455
127.960000 3.457991
127.980000 3.250097
128.000000 3.006621
128.020000 2.742041
128.040000 2.227137
128.060000 1.633017
128.080000 1.162671
128.100000 0.534676
128.120000 -0.046057
128.140000 -0.416236
128.160000 -0.916716
128.180000 -1.351409
128.200000 -1.833125
128.220000 -2.441207
128.240000 -3.005893
128.260000 -3.816309
128.280000 -4.567926
128.300000 -5.220441
128.320000 -5.844991
128.340000 -6.443817
128.360000 -7.010659
128.380000 -7.405708
128.400000 -7.858227
128.420000 -8.469964
128.440000 -9.088871
128.460000 -9.683944
128.480000 -10.287420
128.500000 -10.903330
128.520000 -11.489310
128.540000 -11.911600
128.560000 -12.203370
128.580000 -12.575260
128.600000 -12.946760
128.620000 -13.333350
128.640000 -13.787080
128.660000 -14.269370
128.680000 -14.836300
128.700000 -15.397990
128.720000 -15.850890
128.740000 -16.259550
128.760000 -16.735170
128.780000 -17.339630
128.800000 -17.808770
128.820000 -17.891750
128.840000 -18.069610
128.860000 -18.466320
128.880000 -18.661240
128.900000 -18.478250
128.920000 -18.273720
128.940000 -18.295940
128.960000 -18.209180
128.980000 -17.808580
129.000000 -17.525980
129.020000 -17.320160
129.040000 -16.886090
129.060000 -16.479410
129.080000 -15.927810
129.100000 -15.243530
129.120000 -14.517950
129.140000 -13.649940
129.160000 -13.149740
129.180000 -12.580460
129.200000 -11.925480
129.220000 -11.624260
129.240000 -11.224170
129.260000 -10.611020
129.280000 -10.157590
129.300000 -9.677852
129.320000 -9.071633
129.340000 -8.408139
129.360000 -7.900909
129.380000 -7.559255
129.400000 -7.151309
129.420000 -6.790582
129.440000 -6.622962
129.460000 -6.313208
129.480000 -5.890068
129.500000 -5.447337
129.520000 -5.134026
129.540000 -4.728979
129.560000 -4.361138
129.580000 -4.224227
129.600000 -3.997891
129.620000 -3.836670
129.640000 -3.676528
129.660000 -3.529128
129.680000 -3.302862
129.700000 -2.916257
129.720000 -2.726301
129.740000 -2.463248
129.760000 -2.117239
129.780000 -1.946076
129.800000 -1.789476
129.820000 -1.570281
129.840000 -1.329396
129.860000 -1.100090
129.880000 -0.796161
129.900000 -0.415312
129.920000 0.006442
129.940000 0.256094
129.960000 0.678463
129.980000 1.023142
130.000000 1.264994
130.020000 1.690752
130.040000 2.088084
130.060000 2.596084
130.080000 3.092335
130.100000 3.690839
130.120000 4.322181
130.140000 4.872793
130.160000 5.404837
130.180000 6.039722
130.200000 6.577619
130.220000 7.129380
130.240000 7.848691
130.260000 8.448637
130.280000 9.173423
130.300000 9.854029
130.320000 10.480010
130.340000 11.068050
130.360000 11.542370
130.380000 12.173350
130.400000 12.693390
130.420000 13.175400
130.440000 13.785240
130.460000 14.465040
130.480000 15.059300
130.500000 15.609090
130.520000 16.159530
130.540000 16.718630
130.560000 17.177050
130.580000 17.579290
130.600000 18.042290
130.620000 18.481660
130.640000 19.013430
130.660000 19.488780
130.680000 20.008780
130.700000 20.455170
130.720000 20.689740
130.740000 20.962470
130.760000 21.032730
130.780000 20.913970
130.800000 20.899690
130.820000 20.768350
130.840000 20.557680
130.860000 20.300650
130.880000 20.037890
130.900000 19.934160
130.920000 19.779450
130.940000 19.599290
130.960000 19.427110
130.980000 19.346990
131.000000 19.173890
131.020000 18.678010
131.040000 18.188340
131.060000 17.655510
131.080000 16.967790
131.100000 16.263540
131.120000 15.579360
131.140000 14.897550
131.160000 14.369220
131.180000 13.793890
131.200000 13.300100
131.220000 12.996680
131.240000 12.704540
131.260000 12.396240
131.280000 12.009310
131.300000 11.681790
131.320000 11.424810
131.340000 11.025470
131.360000 10.556270
131.380000 10.041690
131.400000 9.655125
131.420000 9.224563
131.440000 8.646785
131.460000 8.182321
131.480000 7.843005
131.500000 7.540365
131.520000 7.189986
131.540000 6.771608
131.560000 6.567397
131.580000 6.388518
131.600000 5.964986
131.620000 5.608978
131.640000 5.445881
131.660000 5.253041
131.680000 5.023904
131.700000 4.727116
131.720000 4.552970
131.740000 4.434642
131.760000 4.138723
131.780000 3.786538
131.800000 3.470286
131.820000 3.157605
131.840000 2.768297
131.860000 2.387252
131.880000 2.029620
131.900000 1.548296
131.920000 1.151819
131.940000 0.770157
131.960000 0.241474
131.980000 -0.344217
132.000000 -0.963012
132.020000 -1.464318
132.040000 -2.045150
132.060000 -2.807899
132.080000 -3.524801
132.100000 -3.993830
132.120000 -4.599588
132.140000 -5.402779
132.160000 -6.110859
132.180000 -6.695766
132.200000 -7.295684
132.220000 -8.036462
132.240000 -8.721268
132.260000 -9.257569
132.280000 -9.708576
132.300000 -10.277000
132.320000 -10.832650
132.340000 -11.240150
132.360000 -11.733450
132.380000 -12.138030
132.400000 -12.577700
132.420000 -13.068110
132.440000 -13.413240
132.460000 -13.812740
132.480000 -14.147390
132.500000 -14.546560
132.520000 -14.975130
132.540000 -15.356230
132.560000 -15.689340
132.580000 -16.231670
132.600000 -16.873370
132.620000 -17.512640
132.640000 -17.961310
132.660000 -18.111760
132.680000 -18.329870
132.700000 -18.560650
132.720000 -18.518670
132.740000 -18.305770
132.760000 -18.151980
132.780000 -18.124350
132.800000 -17.843960
132.820000 -17.713390
132.840000 -17.558320
132.860000 -17.095410
132.880000 -16.614660
132.900000 -16.207800
132.920000 -15.652370
132.940000 -14.892200
132.960000 -13.984460
132.980000 -13.354090
133.000000 -12.985150
133.020000 -12.404730
133.040000 -11.928890
133.060000 -11.665200
133.080000 -11.166800
133.100000 -10.625870
133.120000 -10.078080
133.140000 -9.483864
133.160000 -8.870600
133.180000 -8.332367
133.200000 -7.981275
133.220000 -7.650193
133.240000 -7.284691
133.260000 -7.032014
133.280000 -6.756330
133.300000 -6.272430
133.320000 -5.791820
133.340000 -5.462769
133.360000 -5.002521
133.380000 -4.571399
133.400000 -4.365325
133.420000 -4.064001
133.440000 -3.802726
133.460000 -3.561630
133.480000 -3.289237
133.500000 -2.976906
133.520000 -2.626583
133.540000 -2.274021
133.560000 -2.052305
133.580000 -1.835785
133.600000 -1.627611
133.620000 -1.598540
133.640000 -1.419815
133.660000 -1.177025
133.680000 -0.976091
133.700000 -0.713696
133.720000 -0.403269
133.740000 -0.087297
133.760000 0.150340
133.780000 0.383538
133.800000 0.701793
133.820000 0.925581
133.840000 1.276295
133.860000 1.722568
133.880000 2.258155
133.900000 2.782203
133.920000 3.460008
133.940000 4.075918
133.960000 4.636375
133.980000 5.261429
134.000000 5.776038
134.020000 6.414746
134.040000 6.963510
134.060000 7.696726
134.080000 8.425083
134.100000 9.075246
134.120000 9.838065
134.140000 10.413370
134.160000 11.073860
134.180000 11.567890
134.200000 12.078910
134.220000 12.683370
134.240000 13.203790
134.260000 13.805810
134.280000 14.444460
134.300000 15.079410
134.320000 15.665990
134.340000 16.206290
134.360000 16.683020
134.380000 17.139220
134.400000 17.512460
134.420000 17.968950
134.440000 18.394700
134.460000 18.788690
134.480000 19.335230
134.500000 19.729130
134.520000 20.108750
134.540000 20.317950
134.560000 20.428560
134.580000 20.470680
134.600000 20.353710
134.620000 20.289840
134.640000 20.176120
134.660000 19.982030
134.680000 19.831920
134.700000 19.656720
134.720000 19.647700
134.740000 19.520610
134.760000 19.385850
134.780000 19.291420
134.800000 19.313440
134.820000 19.145190
134.840000 18.780590
134.860000 18.351730
134.880000 17.940020
134.900000 17.312030
134.920000 16.560160
134.940000 15.941630
134.960000 15.295180
134.980000 14.733280
135.000000 14.182200
135.020000 13.656110
135.040000 13.439490
135.060000 13.123840
135.080000 12.821080
135.100000 12.528570
135.120000 12.148200
135.140000 11.805030
135.160000 11.382580
135.180000 10.923450
135.200000 10.465770
135.220000 10.111520
135.240000 9.735392
135.260000 9.372019
135.280000 8.975556
135.300000 8.515517
135.320000 8.133533
135.340000 7.714665
135.360000 7.204046
135.380000 6.798788
135.400000 6.474708
135.420000 6.231372
135.440000 6.051275
135.460000 5.748438
135.480000 5.511795
135.500000 5.288231
135.520000 4.953635
135.540000 4.591564
135.560000 4.216470
135.580000 3.914557
135.600000 3.669176
135.620000 3.309009
135.640000 3.057131
135.660000 2.739100
135.680000 2.337638
135.700000 1.913770
135.720000 1.375733
135.740000 0.928899
135.760000 0.359830
135.780000 -0.208860
135.800000 -0.568257
135.820000 -1.108534
135.840000 -1.649344
135.860000 -2.134141
135.880000 -2.702706
135.900000 -3.239805
135.920000 -3.941065
135.940000 -4.626250
135.960000 -5.196271
135.980000 -5.812139
136.000000 -6.472720
136.020000 -7.027407
136.040000 -7.551847
136.060000 -8.099645
136.080000 -8.705893
136.100000 -9.205015
136.120000 -9.750796
136.140000 -10.348500
136.160000 -10.852440
136.180000 -11.285520
136.200000 -11.746890
136.220000 -12.195490
136.240000 -12.574830
136.260000 -12.872610
136.280000 -13.292670
136.300000 -13.777580
136.320000 -14.171690
136.340000 -14.589420
136.360000 -15.057480
136.380000 -15.583790
136.400000 -16.018300
136.420000 -16.461350
136.440000 -17.114980
136.460000 -17.705650
136.480000 -17.859540
136.500000 -17.952780
136.520000 -18.206060
136.540000 -18.398340
136.560000 -18.235110
136.580000 -17.985870
136.600000 -17.909580
136.620000 -17.767090
136.640000 -17.496320
136.660000 -17.360210
136.680000 -17.018090
136.700000 -16.583820
136.720000 -16.179780
136.740000 -15.685510
136.760000 -15.044450
136.780000 -14.196320
136.800000 -13.505950
136.820000 -13.133690
136.840000 -12.707120
136.860000 -12.194660
136.880000 -11.852180
136.900000 -11.492490
136.920000 -10.907780
136.940000 -10.341330
136.960000 -9.797959
136.980000 -9.205547
137.000000 -8.573001
137.020000 -8.146710
137.040000 -7.755092
137.060000 -7.338898
137.080000 -7.004708
137.100000 -6.624909
137.120000 -6.244115
137.140000 -5.832906
137.160000 -5.407218
137.180000 -5.133410
137.200000 -4.703843
137.220000 -4.478038
137.240000 -4.286977
137.260000 -4.000944
137.280000 -3.840255
137.300000 -3.572189
137.320000 -3.361690
137.340000 -3.107921
137.360000 -2.720672
137.380000 -2.519108
137.400000 -2.294564
137.420000 -1.949857
137.440000 -1.824134
137.460000 -1.625357
137.480000 -1.376881
137.500000 -1.120213
137.520000 -0.839642
137.540000 -0.563089
137.560000 -0.154275
137.580000 0.122796
137.600000 0.394713
137.620000 0.771516
137.640000 0.979479
137.660000 1.315546
137.680000 1.698426
137.700000 2.066645
137.720000 2.618223
137.740000 3.015835
137.760000 3.677130
137.780000 4.227056
137.800000 4.746581
137.820000 5.328029
137.840000 5.935733
137.860000 6.512083
137.880000 7.143999
137.900000 7.822434
137.920000 8.495996
137.940000 9.261070
137.960000 9.889191
137.980000 10.580800
138.000000 11.228680
138.020000 11.762030
138.040000 12.372800
138.060000 12.919280
138.080000 13.496530
138.100000 14.044450
138.120000 14.703580
138.140000 15.222770
138.160000 15.748540
138.180000 16.343710
138.200000 16.767730
138.220000 17.249610
138.240000 17.679330
138.260000 18.112300
138.280000 18.550620
138.300000 19.019320
138.320000 19.403850
138.340000 19.904450
138.360000 20.291760
138.380000 20.490060
138.400000 20.722130
138.420000 20.778980
138.440000 20.825390
138.460000 20.769480
138.480000 20.577860
138.500000 20.428000
138.520000 20.226710
138.540000 20.021900
138.560000 19.857290
138.580000 19.734750
138.600000 19.615710
138.620000 19.509480
138.640000 19.505760
138.660000 19.255020
138.680000 18.847200
138.700000 18.388860
138.720000 17.792730
138.740000 17.070540
138.760000 16.299550
138.780000 15.634070
138.800000 15.056550
138.820000 14.545340
138.840000 13.997290
138.860000 13.671920
138.880000 13.429420
138.900000 13.118210
138.920000 12.784080
138.940000 12.439080
138.960000 12.042120
138.980000 11.599630
139.000000 11.184560
139.020000 10.726510
139.040000 10.349130
139.060000 10.050790
139.080000 9.623099
139.100000 9.308710
139.120000 8.883680
139.140000 8.420868
139.160000 8.090557
139.180000 7.588382
139.200000 7.136648
139.220000 6.798914
139.240000 6.513036
139.260000 6.308573
139.280000 5.971708
139.300000 5.629269
139.320000 5.448150
139.340000 5.132332
139.360000 4.729147
139.380000 4.369694
139.400000 4.056173
139.420000 3.851388
139.440000 3.527140
139.460000 3.144484
139.480000 2.933425
139.500000 2.621374
139.520000 2.221606
139.540000 1.698832
139.560000 1.202007
139.580000 0.755930
139.600000 0.156544
139.620000 -0.310539
139.640000 -0.746127
139.660000 -1.290004
139.680000 -1.776705
139.700000 -2.286974
139.720000 -2.876950
139.740000 -3.541339
139.760000 -4.265649
139.780000 -4.880061
139.800000 -5.450208
139.820000 -6.124610
139.840000 -6.738644
139.860000 -7.152835
139.880000 -7.622508
139.900000 -8.168290
139.920000 -8.751670
139.940000 -9.215517
139.960000 -9.734580
139.980000 -10.373580
140.000000 -10.959160
140.020000 -11.418880
140.040000 -11.821570
140.060000 -12.272800
140.080000 -12.690030
140.100000 -13.085730
140.120000 -13.514060
140.140000 -14.025440
140.160000 -14.556210
140.180000 -15.064920
140.200000 -15.640330
140.220000 -16.114920
140.240000 -16.654270
140.260000 -17.294160
140.280000 -17.827220
140.300000 -17.997570
140.320000 -18.130380
140.340000 -18.403070
140.360000 -18.637680
140.380000 -18.516120
140.400000 -18.298900
140.420000 -18.280600
140.440000 -18.223380
140.460000 -17.949190
140.480000 -17.731080
140.500000 -17.334850
140.520000 -16.858900
140.540000 -16.477190
140.560000 -15.990110
140.580000 -15.297570
140.600000 -14.526840
140.620000 -13.828830
140.640000 -13.307480
140.660000 -12.772670
140.680000 -12.295310
140.700000 -11.862040
140.720000 -11.486950
140.740000 -10.874190
140.760000 -10.303560
140.780000 -9.838429
140.800000 -9.177792
140.820000 -8.627950
140.840000 -8.177868
140.860000 -7.778310
140.880000 -7.414782
140.900000 -7.116175
140.920000 -6.816587
140.940000 -6.514100
140.960000 -6.158106
140.980000 -5.775352
141.000000 -5.494571
141.020000 -5.064850
141.040000 -4.791910
141.060000 -4.624234
141.080000 -4.347807
141.100000 -4.191151
141.120000 -3.995188
141.140000 -3.777086
141.160000 -3.439269
141.180000 -3.116463
141.200000 -2.783407
141.220000 -2.483217
141.240000 -2.209143
141.260000 -1.905634
141.280000 -1.776341
141.300000 -1.495980
141.320000 -1.264308
141.340000 -1.058052
141.360000 -0.768239
141.380000 -0.493899
141.400000 -0.162383
141.420000 0.126997
141.440000 0.410005
141.460000 0.732250
141.480000 0.973010
141.500000 1.359153
141.520000 1.681482
141.540000 2.148298
141.560000 2.592961
141.580000 3.128744
141.600000 3.665563
141.620000 4.202508
141.640000 4.759184
141.660000 5.292628
141.680000 6.006996
141.700000 6.523090
141.720000 7.264120
141.740000 7.986470
141.760000 8.664527
141.780000 9.469104
141.800000 10.074200
141.820000 10.847410
141.840000 11.457180
141.860000 12.029900
141.880000 12.677260
141.900000 13.251790
141.920000 13.839530
141.940000 14.450000
141.960000 15.037250
141.980000 15.552660
142.000000 16.157340
142.020000 16.625010
142.040000 17.104170
142.060000 17.602690
142.080000 17.997500
142.100000 18.473770
142.120000 18.919750
142.140000 19.363700
142.160000 19.765080
142.180000 20.250760
142.200000 20.567580
142.220000 20.746560
142.240000 20.931990
142.260000 20.951330
142.280000 20.978740
142.300000 20.914740
142.320000 20.712520
142.340000 20.567950
142.360000 20.281410
142.380000 20.022590
142.400000 19.849800
142.420000 19.695150
142.440000 19.521140
142.460000 19.461070
142.480000 19.361800
142.500000 19.141730
142.520000 18.659440
142.540000 18.122270
142.560000 17.615720
142.580000 16.866610
142.600000 16.083300
142.620000 15.410130
142.640000 14.925520
142.660000 14.505160
142.680000 13.878460
142.700000 13.581400
142.720000 13.307950
142.740000 12.944050
142.760000 12.522430
142.780000 12.045740
142.800000 11.699000
142.820000 11.314870
142.840000 10.788640
142.860000 10.297730
142.880000 9.957514
142.900000 9.551430
142.920000 9.102328
142.940000 8.711466
142.960000 8.247913
142.980000 7.861378
143.000000 7.484617
143.020000 7.088588
143.040000 6.724949
143.060000 6.340276
143.080000 6.016266
143.100000 5.717826
143.120000 5.365656
143.140000 5.010544
143.160000 4.773762
143.180000 4.570475
143.200000 4.326788
143.220000 4.035154
143.240000 3.833295
143.260000 3.688823
143.280000 3.345852
143.300000 3.020722
143.320000 2.773367
143.340000 2.475795
143.360000 2.144644
143.380000 1.639836
143.400000 1.351269
143.420000 0.981636
143.440000 0.479181
143.460000 0.097954
143.480000 -0.466564
143.500000 -0.964174
143.520000 -1.511243
143.540000 -2.201791
143.560000 -2.792019
143.580000 -3.384950
143.600000 -4.007651
143.620000 -4.597039
143.640000 -5.164175
143.660000 -5.803639
143.680000 -6.395309
143.700000 -6.955206
143.720000 -7.610437
143.740000 -8.320660
143.760000 -8.909880
143.780000 -9.421269
143.800000 -10.051990
143.820000 -10.597640
143.840000 -11.137790
143.860000 -11.602420
143.880000 -12.063660
143.900000 -12.735610
143.920000 -13.221110
143.940000 -13.698230
143.960000 -14.209200
143.980000 -14.754250
144.000000 -15.279520
144.020000 -15.632870
144.040000 -16.144400
144.060000 -16.680220
144.080000 -17.297380
144.100000 -17.911090
144.120000 -18.230040
144.140000 -18.465060
144.160000 -18.745870
144.180000 -18.839930
144.200000 -18.833370
144.220000 -18.554840
144.240000 -18.478140
144.260000 -18.412890
144.280000 -18.152730
144.300000 -17.831140
144.320000 -17.639840
144.340000 -17.204930
144.360000 -16.780040
144.380000 -16.215730
144.400000 -15.605100
144.420000 -14.948220
144.440000 -14.126720
144.460000 -13.509650
144.480000 -13.033730
144.500000 -12.638400
144.520000 -12.162290
144.540000 -11.774760
144.560000 -11.400590
144.580000 -10.737960
144.600000 -10.267760
144.620000 -9.643348
144.640000 -8.975150
144.660000 -8.414525
144.680000 -7.937346
144.700000 -7.563372
144.720000 -7.169359
144.740000 -6.833223
144.760000 -6.499410
144.780000 -6.196938
144.800000 -5.761993
144.820000 -5.340016
144.840000 -5.019087
144.860000 -4.612541
144.880000 -4.287523
144.900000 -4.100536
144.920000 -3.892124
144.940000 -3.685448
144.960000 -3.524143
144.980000 -3.293816
145.000000 -3.058223
145.020000 -2.762836
145.040000 -2.436516
145.060000 -2.312838
145.080000 -2.002663
145.100000 -1.836555
145.120000 -1.779226
145.140000 -1.440904
145.160000 -1.310701
145.180000 -1.105104
145.200000 -0.788544
145.220000 -0.544493
145.240000 -0.249932
145.260000 0.010180
145.280000 0.336739
145.300000 0.621301
145.320000 0.910625
145.340000 1.263160
145.360000 1.664426
145.380000 2.172090
145.400000 2.597414
145.420000 3.218408
145.440000 3.796719
145.460000 4.364821
145.480000 4.971419
145.500000 5.689330
145.520000 6.269321
145.540000 6.941581
145.560000 7.734829
145.580000 8.356523
145.600000 9.208418
145.620000 9.838163
145.640000 10.608920
145.660000 11.344250
145.680000 11.832910
145.700000 12.572080
145.720000 13.152910
145.740000 13.639140
145.760000 14.265300
145.780000 14.832030
145.800000 15.317430
145.820000 15.870940
145.840000 16.341650
145.860000 16.796700
145.880000 17.247640
145.900000 17.602860
145.920000 18.053980
145.940000 18.474150
145.960000 18.891800
145.980000 19.256760
146.000000 19.817540
146.020000 20.219670
146.040000 20.379250
146.060000 20.662820
146.080000 20.758480
146.100000 20.781330
146.120000 20.758870
146.140000 20.541990
146.160000 20.454200
146.180000 20.169100
146.200000 19.869000
146.220000 19.827270
146.240000 19.743070
146.260000 19.525660
146.280000 19.460770
146.300000 19.461280
146.320000 19.353600
146.340000 18.842020
146.360000 18.227230
146.380000 17.788780
146.400000 17.146910
146.420000 16.184190
146.440000 15.452630
146.460000 15.023820
146.480000 14.510530
146.500000 13.842010
146.520000 13.388160
146.540000 13.122580
146.560000 12.866910
146.580000 12.344440
146.600000 11.851300
146.620000 11.648670
146.640000 11.277150
146.660000 10.827990
146.680000 10.431740
146.700000 10.175100
146.720000 9.862767
146.740000 9.371081
146.760000 8.967938
146.780000 8.554054
146.800000 8.062998
146.820000 7.679586
146.840000 7.195854
146.860000 6.774815
146.880000 6.397424
146.900000 6.083300
146.920000 5.973500
146.940000 5.645149
146.960000 5.284436
146.980000 5.204407
147.000000 4.985983
147.020000 4.695007
147.040000 4.393640
147.060000 4.195240
147.080000 4.203180
147.100000 3.909054
147.120000 3.584456
147.140000 3.515783
147.160000 3.259368
147.180000 2.874205
147.200000 2.401507
147.220000 1.907230
147.240000 1.479456
147.260000 0.817446
147.280000 0.257718
147.300000 -0.200934
147.320000 -0.791708
147.340000 -1.386879
147.360000 -2.022296
147.380000 -2.637730
147.400000 -3.358609
147.420000 -4.208264
147.440000 -4.850010
147.460000 -5.505732
147.480000 -6.305744
147.500000 -6.922046
147.520000 -7.463948
147.540000 -7.972649
147.560000 -8.556337
147.580000 -9.196417
147.600000 -9.628631
147.620000 -10.171080
147.640000 -10.795950
147.660000 -11.290120
147.680000 -11.759680
147.700000 -12.109860
147.720000 -12.582000
147.740000 -12.927110
147.760000 -13.202780
147.780000 -13.641860
147.800000 -14.072720
147.820000 -14.480950
147.840000 -14.895810
147.860000 -15.446180
147.880000 -15.911060
147.900000 -16.382230
147.920000 -16.872420
147.940000 -17.559790
147.960000 -18.031350
147.980000 -18.143060
148.000000 -18.279990
148.020000 -18.587520
148.040000 -18.689240
148.060000 -18.440950
148.080000 -18.267990
148.100000 -18.278620
148.120000 -17.992550
148.140000 -17.636150
148.160000 -17.526080
148.180000 -17.123180
148.200000 -16.615080
148.220000 -16.151200
148.240000 -15.650550
148.260000 -15.001190
148.280000 -14.037530
148.300000 -13.295680
148.320000 -12.932510
148.340000 -12.328480
148.360000 -11.754150
148.380000 -11.423480
148.400000 -11.015050
148.420000 -10.434010
148.440000 -9.902985
148.460000 -9.453589
148.480000 -8.866259
148.500000 -8.181551
148.520000 -7.833805
148.540000 -7.380866
148.560000 -6.906278
148.580000 -6.539978
148.600000 -6.224524
148.620000 -5.931714
148.640000 -5.389266
148.660000 -5.163405
148.680000 -4.932364
148.700000 -4.413245
148.720000 -4.156101
148.740000 -3.897277
148.760000 -3.543244
148.780000 -3.318084
148.800000 -3.152480
148.820000 -2.995894
148.840000 -2.921312
148.860000 -2.578272
148.880000 -2.512512
148.900000 -2.374061
148.920000 -1.979488
148.940000 -1.920632
148.960000 -1.675839
148.980000 -1.409271
149.000000 -1.215702
149.020000 -1.008494
149.040000 -0.733034
149.060000 -0.323898
149.080000 -0.078979
149.100000 0.330017
149.120000 0.735863
149.140000 1.163260
149.160000 1.582128
149.180000 1.921724
149.200000 2.548081
149.220000 2.857947
149.240000 3.311880
149.260000 3.911000
149.280000 4.395307
149.300000 4.881559
149.320000 5.523488
149.340000 6.174336
149.360000 6.650577
149.380000 7.414992
149.400000 7.998681
149.420000 8.683543
149.440000 9.415793
149.460000 9.944252
149.480000 10.803010
149.500000 11.382650
149.520000 11.989740
149.540000 12.776210
149.560000 13.394290
149.580000 13.948210
149.600000 14.621640
149.620000 15.254120
149.640000 15.721200
149.660000 16.298880
149.680000 16.817590
149.700000 17.376260
149.720000 17.849730
149.740000 18.286390
149.760000 18.815760
149.780000 19.261670
149.800000 19.630970
149.820000 20.010350
149.840000 20.513310
149.860000 20.685560
149.880000 20.798000
149.900000 20.983890
149.920000 20.923520
149.940000 20.885910
149.960000 20.701300
149.980000 20.399920
150.000000 20.218860
150.020000 19.911680
150.040000 19.675420
150.060000 19.680400
150.080000 19.550810
150.100000 19.447300
150.120000 19.516170
150.140000 19.321580
150.160000 18.957110
150.180000 18.392410
150.200000 17.792520
150.220000 17.152950
150.240000 16.330470
150.260000 15.594610
150.280000 15.173980
150.300000 14.723460
150.320000 14.196820
150.340000 13.782790
150.360000 13.510670
150.380000 13.119640
150.400000 12.649790
150.420000 12.191390
150.440000 11.855040
150.460000 11.481070
150.480000 11.098700
150.500000 10.792490
150.520000 10.531190
150.540000 10.204440
150.560000 9.752910
150.580000 9.403470
150.600000 8.975948
150.620000 8.378214
150.640000 7.914268
150.660000 7.587808
150.680000 7.222530
150.700000 6.935293
150.720000 6.672086
150.740000 6.542555
150.760000 6.349084
150.780000 5.901383
150.800000 5.605660
150.820000 5.414346
150.840000 4.940178
150.860000 4.534822
150.880000 4.267792
150.900000 4.136104
150.920000 3.919570
150.940000 3.517954
150.960000 3.280513
150.980000 3.066513
151.000000 2.586562
151.020000 2.035039
151.040000 1.567215
151.060000 1.067505
151.080000 0.578577
151.100000 0.011385
151.120000 -0.444201
151.140000 -0.901929
151.160000 -1.469793
151.180000 -2.020868
151.200000 -2.637590
151.220000 -3.354100
151.240000 -4.086266
151.260000 -4.729063
151.280000 -5.349076
151.300000 -6.054621
151.320000 -6.678822
151.340000 -7.150049
151.360000 -7.663342
151.380000 -8.311306
151.400000 -8.952282
151.420000 -9.426058
151.440000 -9.960846
151.460000 -10.538850
151.480000 -11.082390
151.500000 -11.460900
151.520000 -11.766590
151.540000 -12.172830
151.560000 -12.567970
151.580000 -12.888460
151.600000 -13.272150
151.620000 -13.730970
151.640000 -14.172040
151.660000 -14.636000
151.680000 -15.052530
151.700000 -15.535640
151.720000 -15.957450
151.740000 -16.393890
151.760000 -17.075240
151.780000 -17.722000
151.800000 -18.064650
151.820000 -18.240950
151.840000 -18.425520
151.860000 -18.711610
151.880000 -18.584820
151.900000 -18.299360
151.920000 -18.162450
151.940000 -18.019700
151.960000 -17.758860
151.980000 -17.611520
152.000000 -17.410400
152.020000 -17.027200
152.040000 -16.389710
152.060000 -15.942960
152.080000 -15.280730
152.100000 -14.318010
152.120000 -13.497230
152.140000 -12.881260
152.160000 -12.452030
152.180000 -11.895900
152.200000 -11.437810
152.220000 -11.151990
152.240000 -10.657000
152.260000 -10.043510
152.280000 -9.542566
152.300000 -8.997765
152.320000 -8.315941
152.340000 -7.818850
152.360000 -7.507639
152.380000 -7.184469
152.400000 -6.839580
152.420000 -6.682588
152.440000 -6.403767
152.460000 -5.954693
152.480000 -5.622478
152.500000 -5.265574
152.520000 -4.933666
152.540000 -4.616378
152.560000 -4.391820
152.580000 -4.280017
152.600000 -3.998059
152.620000 -3.844456
152.640000 -3.654963
152.660000 -3.305299
152.680000 -3.021058
152.700000 -2.701431
152.720000 -2.497094
152.740000 -2.224855
152.760000 -1.991237
152.780000 -1.910955
152.800000 -1.675055
152.820000 -1.388714
152.840000 -1.161117
152.860000 -0.842583
152.880000 -0.412147
152.900000 -0.069849
152.920000 0.215050
152.940000 0.610281
152.960000 0.942651
152.980000 1.248428
153.000000 1.608777
153.020000 2.074123
153.040000 2.605816
153.060000 3.102306
153.080000 3.734936
153.100000 4.392800
153.120000 4.952290
153.140000 5.465962
153.160000 6.199276
153.180000 6.706324
153.200000 7.280140
153.220000 8.050871
153.240000 8.649305
153.260000 9.470028
153.280000 10.124340
153.300000 10.821910
153.320000 11.550190
153.340000 12.043900
153.360000 12.640700
153.380000 13.195740
153.400000 13.676700
153.420000 14.165570
153.440000 14.778840
153.460000 15.294940
153.480000 15.792810
153.500000 16.314200
153.520000 16.831680
153.540000 17.221270
153.560000 17.574920
153.580000 18.034390
153.600000 18.415310
153.620000 18.902560
153.640000 19.247430
153.660000 19.787690
153.680000 20.271850
153.700000 20.429850
153.720000 20.647990
153.740000 20.729280
153.760000 20.669680
153.780000 20.631440
153.800000 20.358290
153.820000 20.214520
153.840000 20.048370
153.860000 19.817960
153.880000 19.707040
153.900000 19.690180
153.920000 19.570730
153.940000 19.546810
153.960000 19.495460
153.980000 19.259190
154.000000 18.817920
154.020000 18.256830
154.040000 17.745150
154.060000 17.066250
154.080000 16.286630
154.100000 15.679190
154.120000 15.178640
154.140000 14.651390
154.160000 14.051570
154.180000 13.600590
154.200000 13.253880
154.220000 12.866520
154.240000 12.358600
154.260000 11.935780
154.280000 11.675260
154.300000 11.256190
154.320000 10.821730
154.340000 10.422050
154.360000 10.098000
154.380000 9.726878
154.400000 9.205659
154.420000 8.824137
154.440000 8.458859
154.460000 7.981121
154.480000 7.627255
154.500000 7.284145
154.520000 6.980524
154.540000 6.749062
154.560000 6.410027
154.580000 6.163092
154.600000 5.906270
154.620000 5.562375
154.640000 5.340240
154.660000 5.095629
154.680000 4.829033
154.700000 4.604209
154.720000 4.324506
154.740000 4.137519
154.760000 3.783906
154.780000 3.350291
154.800000 3.087952
154.820000 2.695060
154.840000 2.229630
154.860000 1.725887
154.880000 1.311415
154.900000 0.947524
154.920000 0.366118
154.940000 -0.248938
154.960000 -0.750749
154.980000 -1.304372
155.000000 -1.915562
155.020000 -2.598871
155.040000 -3.222231
155.060000 -3.759652
155.080000 -4.342080
155.100000 -4.959908
155.120000 -5.570497
155.140000 -6.133600
155.160000 -6.676133
155.180000 -7.258435
155.200000 -7.843033
155.220000 -8.434368
155.240000 -8.943474
155.260000 -9.340679
155.280000 -9.904791
155.300000 -10.421210
155.320000 -10.842220
155.340000 -11.254870
155.360000 -11.731850
155.380000 -12.295210
155.400000 -12.748680
155.420000 -13.106390
155.440000 -13.583360
155.460000 -14.082090
155.480000 -14.548940
155.500000 -14.943590
155.520000 -15.370350
155.540000 -15.938950
155.560000 -16.523610
155.580000 -17.158070
155.600000 -17.885020
155.620000 -18.074480
155.640000 -18.114460
155.660000 -18.306400
155.680000 -18.382410
155.700000 -18.290360
155.720000 -17.930890
155.740000 -17.813810
155.760000 -17.824210
155.780000 -17.616960
155.800000 -17.443040
155.820000 -17.301330
155.840000 -16.842160
155.860000 -16.408560
155.880000 -15.947370
155.900000 -15.256580
155.920000 -14.476830
155.940000 -13.713590
155.960000 -13.343230
155.980000 -13.026300
156.000000 -12.520660
156.020000 -12.111580
156.040000 -11.752210
156.060000 -11.272610
156.080000 -10.582190
156.100000 -9.996289
156.120000 -9.422935
156.140000 -8.768698
156.160000 -8.312356
156.180000 -7.961264
156.200000 -7.667725
156.220000 -7.335117
156.240000 -7.013124
156.260000 -6.682658
156.280000 -6.252839
156.300000 -5.840440
156.320000 -5.480862
156.340000 -5.185629
156.360000 -4.872303
156.380000 -4.709724
156.400000 -4.549456
156.420000 -4.258774
156.440000 -4.011768
156.460000 -3.726842
156.480000 -3.326598
156.500000 -2.973517
156.520000 -2.656425
156.540000 -2.441515
156.560000 -2.226619
156.580000 -1.977275
156.600000 -1.830534
156.620000 -1.632835
156.640000 -1.285775
156.660000 -1.020971
156.680000 -0.680886
156.700000 -0.314670
156.720000 -0.026536
156.740000 0.246053
156.760000 0.529677
156.780000 0.816872
156.800000 1.051779
156.820000 1.484819
156.840000 1.868525
156.860000 2.419950
156.880000 2.928986
156.900000 3.428122
156.920000 4.024063
156.940000 4.520623
156.960000 4.992718
156.980000 5.602369
157.000000 6.196097
157.020000 6.764732
157.040000 7.570038
157.060000 8.192655
157.080000 8.936696
157.100000 9.666958
157.120000 10.181200
157.140000 10.855280
157.160000 11.320480
157.180000 11.845390
157.200000 12.481230
157.220000 13.015340
157.240000 13.613190
157.260000 14.288670
157.280000 14.883090
157.300000 15.367640
157.320000 15.907610
157.340000 16.377100
157.360000 16.812760
157.380000 17.258900
157.400000 17.735070
157.420000 18.263680
157.440000 18.857510
157.460000 19.328060
157.480000 19.818920
157.500000 20.366440
157.520000 20.599540
157.540000 20.771010
157.560000 20.832390
157.580000 20.802350
157.600000 20.847880
157.620000 20.725220
157.640000 20.532800
157.660000 20.356370
157.680000 20.145300
157.700000 19.902900
157.720000 19.732170
157.740000 19.508580
157.760000 19.334810
157.780000 19.354330
157.800000 19.157880
157.820000 18.790630
157.840000 18.423670
157.860000 17.948900
157.880000 17.405160
157.900000 16.607770
157.920000 15.815720
157.940000 15.353770
157.960000 14.842350
157.980000 14.215140
158.000000 13.800080
158.020000 13.541900
158.040000 13.297230
158.060000 12.980970
158.080000 12.429930
158.100000 12.142960
158.120000 11.829020
158.140000 11.318210
158.160000 10.910720
158.180000 10.457310
158.200000 10.123750
158.220000 9.671593
158.240000 9.214831
158.260000 8.758419
158.280000 8.218954
158.300000 7.766953
158.320000 7.351515
158.340000 6.890468
158.360000 6.503807
158.380000 6.271436
158.400000 6.085023
158.420000 5.851083
158.440000 5.422411
158.460000 5.167816
158.480000 5.046505
158.500000 4.710620
158.520000 4.422025
158.540000 4.195745
158.560000 4.122087
158.580000 4.023895
158.600000 3.643172
158.620000 3.399457
158.640000 3.158263
158.660000 2.753580
158.680000 2.259037
158.700000 1.739806
158.720000 1.311079
158.740000 0.887491
158.760000 0.387557
158.780000 -0.078517
158.800000 -0.546789
158.820000 -1.100048
158.840000 -1.668879
158.860000 -2.275477
158.880000 -3.004898
158.900000 -3.703274
158.920000 -4.287831
158.940000 -4.871323
158.960000 -5.435603
158.980000 -6.039274
159.000000 -6.510109
159.020000 -6.980580
159.040000 -7.642841
159.060000 -8.340671
159.080000 -8.933854
159.100000 -9.501550
159.120000 -10.195350
159.140000 -10.814070
159.160000 -11.291730
159.180000 -11.728340
159.200000 -12.231280
159.220000 -12.787750
159.240000 -13.237380
159.260000 -13.738800
159.280000 -14.328820
159.300000 -14.857950
159.320000 -15.363960
159.340000 -15.833050
159.360000 -16.265920
159.380000 -16.748500
159.400000 -17.366670
159.420000 -17.921160
159.440000 -18.134070
159.460000 -18.211780
159.480000 -18.574460
159.500000 -18.798540
159.520000 -18.697450
159.540000 -18.411880
159.560000 -18.396170
159.580000 -18.360440
159.600000 -18.091030
159.620000 -17.799450
159.640000 -17.657770
159.660000 -17.240920
159.680000 -16.783550
159.700000 -16.399330
159.720000 -15.764990
159.740000 -14.986320
159.760000 -14.167770
159.780000 -13.609340
159.800000 -13.105790
159.820000 -12.534430
159.840000 -12.169440
159.860000 -11.740940
159.880000 -11.238780
159.900000 -10.689430
159.920000 -10.159150
159.940000 -9.586340
159.960000 -8.976956
159.980000 -8.423137
160.000000 -8.053518
160.020000 -7.694556
160.040000 -7.265451
160.060000 -7.032631
160.080000 -6.707402
160.100000 -6.247966
160.120000 -5.875995
160.140000 -5.486267
160.160000 -5.094495
160.180000 -4.715410
160.200000 -4.458000
160.220000 -4.181965
160.240000 -3.914347
160.260000 -3.636324
160.280000 -3.407089
160.300000 -3.105204
160.320000 -2.735151
160.340000 -2.538040
160.360000 -2.257399
160.380000 -2.018949
160.400000 -1.862882
160.420000 -1.674831
160.440000 -1.484903
160.460000 -1.221304
160.480000 -0.983484
160.500000 -0.724464
160.520000 -0.462265
160.540000 -0.242468
160.560000 -0.024240
160.580000 0.194647
160.600000 0.506796
160.620000 0.743663
160.640000 1.147562
160.660000 1.635243
160.680000 2.008643
160.700000 2.574015
160.720000 3.069902
160.740000 3.546871
160.760000 4.014359
160.780000 4.537595
160.800000 5.021257
160.820000 5.675858
160.840000 6.220645
160.860000 6.904948
160.880000 7.674881
160.900000 8.222287
160.920000 8.993424
160.940000 9.604181
160.960000 10.136410
160.980000 10.793220
161.000000 11.361100
161.020000 12.026680
161.040000 12.686990
161.060000 13.383480
161.080000 14.141340
161.100000 14.827860
161.120000 15.359350
161.140000 15.962680
161.160000 16.523960
161.180000 16.933150
161.200000 17.391960
161.220000 17.906470
161.240000 18.408940
161.260000 18.836750
161.280000 19.349000
161.300000 19.715440
161.320000 20.135710
161.340000 20.379480
161.360000 20.417430
161.380000 20.521560
161.400000 20.528540
161.420000 20.481060
161.440000 20.458290
161.460000 20.290160
161.480000 20.154150
161.500000 20.043730
161.520000 19.849880
161.540000 19.681970
161.560000 19.629110
161.580000 19.516980
161.600000 19.527480
161.620000 19.553310
161.640000 19.358180
161.660000 19.049230
161.680000 18.532250
161.700000 17.999130
161.720000 17.250470
161.740000 16.368510
161.760000 15.624400
161.780000 15.040610
161.800000 14.443770
161.820000 13.834360
161.840000 13.584330
161.860000 13.355600
161.880000 13.038180
161.900000 12.594170
161.920000 12.142950
161.940000 11.850070
161.960000 11.358630
161.980000 10.805820
162.000000 10.438380
162.020000 10.188360
162.040000 9.837813
162.060000 9.376262
162.080000 9.041161
162.100000 8.621452
162.120000 8.127834
162.140000 7.605354
162.160000 7.099301
162.180000 6.673290
162.200000 6.391682
162.220000 6.135827
162.240000 5.853645
162.260000 5.707338
162.280000 5.482052
162.300000 5.316504
162.320000 5.038593
162.340000 4.624920
162.360000 4.416410
162.380000 4.243356
162.400000 4.070625
162.420000 3.789269
162.440000 3.507787
162.460000 3.384642
162.480000 3.072409
162.500000 2.573343
162.520000 2.075817
162.540000 1.614784
162.560000 1.152701
162.580000 0.640920
162.600000 0.091078
162.620000 -0.345365
162.640000 -0.780870
162.660000 -1.372876
162.680000 -1.989220
162.700000 -2.714945
162.720000 -3.402482
162.740000 -4.106179
162.760000 -4.879459
162.780000 -5.525364
162.800000 -6.162195
162.820000 -6.718115
162.840000 -7.212210
162.860000 -7.824255
162.880000 -8.413152
162.900000 -8.998549
162.920000 -9.582083
162.940000 -10.224500
162.960000 -10.839350
162.980000 -11.354080
163.000000 -11.771610
163.020000 -12.168690
163.040000 -12.590920
163.060000 -12.961360
163.080000 -13.371480
163.100000 -13.804130
163.120000 -14.289330
163.140000 -14.802790
163.160000 -15.253150
163.180000 -15.727920
163.200000 -16.152200
163.220000 -16.600330
163.240000 -17.146420
163.260000 -17.758340
163.280000 -18.018800
163.300000 -18.129740
163.320000 -18.414800
163.340000 -18.641560
163.360000 -18.622630
163.380000 -18.368240
163.400000 -18.295450
163.420000 -18.263320
163.440000 -17.963180
163.460000 -17.693140
163.480000 -17.561290
163.500000 -17.171680
163.520000 -16.696030
163.540000 -16.326780
163.560000 -15.764300
163.580000 -15.065100
163.600000 -14.225040
163.620000 -13.600500
163.640000 -13.183400
163.660000 -12.604600
163.680000 -12.074930
163.700000 -11.683550
163.720000 -11.162980
163.740000 -10.443990
163.760000 -9.848806
163.780000 -9.237783
163.800000 -8.490465
163.820000 -7.891233
163.840000 -7.543585
163.860000 -7.183279
163.880000 -6.815032
163.900000 -6.592029
163.920000 -6.338078
163.940000 -5.928563
163.960000 -5.532422
163.980000 -5.154247
164.000000 -4.792540
164.020000 -4.387815
164.040000 -4.116388
164.060000 -3.985358
164.080000 -3.736924
164.100000 -3.529871
164.120000 -3.358791
164.140000 -3.137048
164.160000 -2.859585
164.180000 -2.577908
164.200000 -2.374495
164.220000 -2.143859
164.240000 -1.850097
164.260000 -1.782418
164.280000 -1.641545
164.300000 -1.376293
164.320000 -1.179714
164.340000 -0.940032
164.360000 -0.642306
164.380000 -0.275866
164.400000 -0.041968
164.420000 0.233324
164.440000 0.604273
164.460000 0.774484
164.480000 1.150811
164.500000 1.560479
164.520000 2.067639
164.540000 2.596308
164.560000 3.211196
164.580000 3.889869
164.600000 4.463797
164.620000 5.017798
164.640000 5.609440
164.660000 6.215408
164.680000 6.710049
164.700000 7.456008
164.720000 8.105905
164.740000 8.897025
164.760000 9.683174
164.780000 10.268500
164.800000 11.091930
164.820000 11.598410
164.840000 12.141550
164.860000 12.758300
164.880000 13.240730
164.900000 13.843250
164.920000 14.472060
164.940000 15.097590
164.960000 15.658440
164.980000 16.186450
165.000000 16.725230
165.020000 17.115520
165.040000 17.438320
165.060000 17.866080
165.080000 18.309910
165.100000 18.782370
165.120000 19.255030
165.140000 19.775010
165.160000 20.398240
165.180000 20.686530
165.200000 20.841840
165.220000 20.993510
165.240000 21.001600
165.260000 20.947640
165.280000 20.787750
165.300000 20.654910
165.320000 20.558850
165.340000 20.369130
165.360000 20.153490
165.380000 20.053810
165.400000 19.836230
165.420000 19.628800
165.440000 19.485590
165.460000 19.270620
165.480000 18.830260
165.500000 18.279940
165.520000 17.790210
165.540000 17.251670
165.560000 16.516970
165.580000 15.771660
165.600000 15.293020
165.620000 14.817840
165.640000 14.203670
165.660000 13.746960
165.680000 13.466240
165.700000 13.164830
165.720000 12.764590
165.740000 12.336420
165.760000 12.075300
165.780000 11.702610
165.800000 11.301540
165.820000 10.906840
165.840000 10.571980
165.860000 10.142530
165.880000 9.597347
165.900000 9.196851
165.920000 8.754989
165.940000 8.188062
165.960000 7.694444
165.980000 7.313510
166.000000 6.941553
166.020000 6.500097
166.040000 6.090400
166.060000 5.863728
166.080000 5.649126
166.100000 5.216898
166.120000 4.953691
166.140000 4.732494
166.160000 4.493470
166.180000 4.276362
166.200000 3.979351
166.220000 3.932215
166.240000 3.711424
166.260000 3.408167
166.280000 3.179772
166.300000 2.897521
166.320000 2.543739
166.340000 2.118653
166.360000 1.710973
166.380000 1.355904
166.400000 0.883962
166.420000 0.375024
166.440000 -0.038677
166.460000 -0.542028
166.480000 -1.111923
166.500000 -1.730424
166.520000 -2.387966
166.540000 -3.007923
166.560000 -3.723691
166.580000 -4.419518
166.600000 -5.030555
166.620000 -5.700826
166.640000 -6.338638
166.660000 -7.017171
166.680000 -7.603058
166.700000 -8.215789
166.720000 -8.866427
166.740000 -9.382031
166.760000 -9.916960
166.780000 -10.463150
166.800000 -10.918680
166.820000 -11.356070
166.840000 -11.808140
166.860000 -12.233470
166.880000 -12.664460
166.900000 -13.060030
166.920000 -13.422560
166.940000 -13.852240
166.960000 -14.257090
166.980000 -14.582660
167.000000 -14.993190
167.020000 -15.450420
167.040000 -15.836850
167.060000 -16.304740
167.080000 -16.925660
167.100000 -17.622240
167.120000 -17.957750
167.140000 -18.095430
167.160000 -18.273800
167.180000 -18.537010
167.200000 -18.453960
167.220000 -18.199970
167.240000 -18.110190
167.260000 -18.044820
167.280000 -17.803290
167.300000 -17.598810
167.320000 -17.350200
167.340000 -16.920390
167.360000 -16.386840
167.380000 -15.883750
167.400000 -15.236180
167.420000 -14.387250
167.440000 -13.535470
167.460000 -13.063540
167.480000 -12.613500
167.500000 -12.021470
167.520000 -11.553740
167.540000 -11.194250
167.560000 -10.643970
167.580000 -9.962317
167.600000 -9.486847
167.620000 -8.990623
167.640000 -8.386196
167.660000 -7.924589
167.680000 -7.610563
167.700000 -7.260101
167.720000 -6.888578
167.740000 -6.632568
167.760000 -6.314146
167.780000 -5.860535
167.800000 -5.556662
167.820000 -5.282644
167.840000 -4.896977
167.860000 -4.616812
167.880000 -4.415401
167.900000 -4.186656
167.920000 -3.908998
167.940000 -3.639769
167.960000 -3.445150
167.980000 -3.172057
168.000000 -2.848425
168.020000 -2.599543
168.040000 -2.415945
168.060000 -2.158409
168.080000 -1.931554
168.100000 -1.836752
168.120000 -1.627149
168.140000 -1.369991
168.160000 -1.198198
168.180000 -0.941852
168.200000 -0.595969
168.220000 -0.345771
168.240000 -0.110613
168.260000 0.254749
168.280000 0.560037
168.300000 0.850662
168.320000 1.193129
168.340000 1.690920
168.360000 2.176837
168.380000 2.592093
168.400000 3.287584
168.420000 3.892474
168.440000 4.483598
168.460000 5.086779
168.480000 5.841882
168.500000 6.454418
168.520000 7.143075
168.540000 7.946378
168.560000 8.629126
168.580000 9.435342
168.600000 10.122180
168.620000 10.874750
168.640000 11.560040
168.660000 12.121590
168.680000 12.799090
168.700000 13.402890
168.720000 13.907680
168.740000 14.442760
168.760000 15.073480
168.780000 15.548530
168.800000 16.015220
168.820000 16.497230
168.840000 16.989960
168.860000 17.399740
168.880000 17.721390
168.900000 18.217020
168.920000 18.623060
168.940000 18.977330
168.960000 19.327420
168.980000 19.793240
169.000000 20.197730
169.020000 20.385640
169.040000 20.530390
169.060000 20.653340
169.080000 20.678800
169.100000 20.640010
169.120000 20.482430
169.140000 20.280360
169.160000 20.104740
169.180000 19.867140
169.200000 19.727440
169.220000 19.655600
169.240000 19.478950
169.260000 19.460980
169.280000 19.486170
169.300000 19.340510
169.320000 18.942160
169.340000 18.438330
169.360000 17.916590
169.380000 17.190770
169.400000 16.307340
169.420000 15.558410
169.440000 15.049350
169.460000 14.558110
169.480000 13.994040
169.500000 13.566240
169.520000 13.356580
169.540000 13.027370
169.560000 12.566820
169.580000 12.117940
169.600000 11.759870
169.620000 11.446760
169.640000 10.967660
169.660000 10.509620
169.680000 10.171710
169.700000 9.781169
169.720000 9.349067
169.740000 8.863599
169.760000 8.339355
169.780000 7.907421
169.800000 7.432791
169.820000 7.000549
169.840000 6.612460
169.860000 6.216178
169.880000 6.073862
169.900000 5.893331
169.920000 5.636271
169.940000 5.431206
169.960000 5.193610
169.980000 5.074386
170.000000 4.818628
170.020000 4.493428
170.040000 4.283378
170.060000 4.091420
170.080000 3.843070
170.100000 3.545862
170.120000 3.189771
170.140000 2.929854
170.160000 2.543992
170.180000 1.987400
170.200000 1.467819
170.220000 0.929529
170.240000 0.423252
170.260000 -0.088473
170.280000 -0.649112
170.300000 -1.124848
170.320000 -1.623382
170.340000 -2.141213
170.360000 -2.744184
170.380000 -3.458033
170.400000 -4.080931
170.420000 -4.785706
170.440000 -5.441428
170.460000 -6.101771
170.480000 -6.749440
170.500000 -7.248422
170.520000 -7.756871
170.540000 -8.364113
170.560000 -8.949621
170.580000 -9.483696
170.600000 -10.033710
170.620000 -10.611410
170.640000 -11.119400
170.660000 -11.591190
170.680000 -11.964880
170.700000 -12.328020
170.720000 -12.734840
170.740000 -13.105950
170.760000 -13.514370
170.780000 -13.977780
170.800000 -14.426580
170.820000 -14.937610
170.840000 -15.472260
170.860000 -15.889050
170.880000 -16.391350
170.900000 -16.979850
170.920000 -17.729680
170.940000 -18.026950
170.960000 -18.020300
170.980000 -18.254630
171.000000 -18.516120
171.020000 -18.576980
171.040000 -18.199120
171.060000 -18.027490
171.080000 -18.077170
171.100000 -17.875980
171.120000 -17.521680
171.140000 -17.250900
171.160000 -16.867110
171.180000 -16.435820
171.200000 -15.964830
171.220000 -15.294490
171.240000 -14.533180
171.260000 -13.694860
171.280000 -13.128030
171.300000 -12.772480
171.320000 -12.223750
171.340000 -11.822860
171.360000 -11.436760
171.380000 -11.045700
171.400000 -10.383610
171.420000 -9.796041
171.440000 -9.339881
171.460000 -8.588447
171.480000 -8.036336
171.500000 -7.665821
171.520000 -7.368179
171.540000 -7.021232
171.560000 -6.716407
171.580000 -6.531688
171.600000 -6.134707
171.620000 -5.781136
171.640000 -5.463805
171.660000 -5.095839
171.680000 -4.764463
171.700000 -4.531097
171.720000 -4.338215
171.740000 -4.074097
171.760000 -3.783864
171.780000 -3.538329
171.800000 -3.339509
171.820000 -2.937388
171.840000 -2.629482
171.860000 -2.468863
171.880000 -2.241421
171.900000 -1.984991
171.920000 -1.754986
171.940000 -1.619993
171.960000 -1.267949
171.980000 -0.982000
172.000000 -0.770199
172.020000 -0.480386
172.040000 -0.242944
172.060000 -0.062119
172.080000 0.163713
172.100000 0.494361
172.120000 0.736969
172.140000 1.145853
172.160000 1.596762
172.180000 2.140457
172.200000 2.655080
172.220000 3.201492
172.240000 3.832329
172.260000 4.422473
172.280000 4.894148
172.300000 5.549786
172.320000 6.246496
172.340000 6.827103
172.360000 7.617761
172.380000 8.300747
172.400000 9.032311
172.420000 9.770765
172.440000 10.306040
172.460000 10.991940
172.480000 11.535080
172.500000 12.091440
172.520000 12.785120
172.540000 13.335830
172.560000 13.912500
172.580000 14.628770
172.600000 15.221860
172.620000 15.735480
172.640000 16.219220
172.660000 16.743640
172.680000 17.235850
172.700000 17.565560
172.720000 18.039920
172.740000 18.495700
172.760000 18.941990
172.780000 19.313960
172.800000 19.678760
172.820000 20.117750
172.840000 20.311480
172.860000 20.411320
172.880000 20.509970
172.900000 20.516440
172.920000 20.478930
172.940000 20.349710
172.960000 20.195580
172.980000 20.022840
173.000000 19.780690
173.020000 19.616420
173.040000 19.551040
173.060000 19.382900
173.080000 19.270270
173.100000 19.280950
173.120000 19.283010
173.140000 19.040010
173.160000 18.528570
173.180000 17.985950
173.200000 17.377790
173.220000 16.551540
173.240000 15.753900
173.260000 15.098110
173.280000 14.598050
173.300000 14.125550
173.320000 13.559540
173.340000 13.239360
173.360000 12.971140
173.380000 12.585850
173.400000 12.162010
173.420000 11.762970
173.440000 11.431330
173.460000 11.026980
173.480000 10.522860
173.500000 10.114600
173.520000 9.772473
173.540000 9.339895
173.560000 8.871399
173.580000 8.468088
173.600000 8.050143
173.620000 7.640503
173.640000 7.201147
173.660000 6.865374
173.680000 6.528355
173.700000 6.191252
173.720000 5.979297
173.740000 5.699650
173.760000 5.443262
173.780000 5.233212
173.800000 5.023554
173.820000 4.822311
173.840000 4.595387
173.860000 4.333006
173.880000 4.131903
173.900000 3.916714
173.920000 3.548929
173.940000 3.189435
173.960000 2.866503
173.980000 2.501883
174.000000 2.062976
174.020000 1.566683
174.040000 1.167055
174.060000 0.770619
174.080000 0.224404
174.100000 -0.337943
174.120000 -0.881288
174.140000 -1.428049
174.160000 -2.045920
174.180000 -2.738218
174.200000 -3.386042
174.220000 -3.986408
174.240000 -4.580711
174.260000 -5.230313
174.280000 -5.863139
174.300000 -6.455664
174.320000 -7.048874
174.340000 -7.641833
174.360000 -8.255208
174.380000 -8.896395
174.400000 -9.385728
174.420000 -9.792498
174.440000 -10.305920
174.460000 -10.763420
174.480000 -11.141300
174.500000 -11.501100
174.520000 -11.915940
174.540000 -12.441610
174.560000 -12.885910
174.580000 -13.265890
174.600000 -13.699910
174.620000 -14.181080
174.640000 -14.626260
174.660000 -14.983200
174.680000 -15.411320
174.700000 -15.902120
174.720000 -16.486680
174.740000 -17.119060
174.760000 -17.807350
174.780000 -18.081300
174.800000 -18.250310
174.820000 -18.454640
174.840000 -18.554100
174.860000 -18.359480
174.880000 -18.122370
174.900000 -17.994520
174.920000 -17.917240
174.940000 -17.699900
174.960000 -17.402630
174.980000 -17.139060
175.000000 -16.650650
175.020000 -16.185240
175.040000 -15.591320
175.060000 -14.747200
175.080000 -14.000990
175.100000 -13.224500
175.120000 -12.807020
175.140000 -12.499960
175.160000 -11.994230
175.180000 -11.749590
175.200000 -11.491950
175.220000 -11.017370
175.240000 -10.442480
175.260000 -9.952921
175.280000 -9.488149
175.300000 -8.941051
175.320000 -8.560958
175.340000 -8.269254
175.360000 -7.950747
175.380000 -7.624427
175.400000 -7.279104
175.420000 -6.844691
175.440000 -6.421958
175.460000 -5.906158
175.480000 -5.474560
175.500000 -5.106706
175.520000 -4.662953
175.540000 -4.391722
175.560000 -4.087835
175.580000 -3.714351
175.600000 -3.375119
175.620000 -3.082057
175.640000 -2.857009
175.660000 -2.505664
175.680000 -2.284411
175.700000 -2.156546
175.720000 -1.909135
175.740000 -1.733127
175.760000 -1.607923
175.780000 -1.382944
175.800000 -1.123252
175.820000 -0.839824
175.840000 -0.521471
175.860000 -0.153897
175.880000 0.215862
175.900000 0.428209
175.920000 0.857412
175.940000 1.169113
175.960000 1.476025
175.980000 1.925743
176.000000 2.347174
176.020000 2.884637
176.040000 3.342211
176.060000 3.865349
176.080000 4.413777
176.100000 4.910658
176.120000 5.366118
176.140000 5.990094
176.160000 6.504536
176.180000 7.198724
176.200000 7.904522
176.220000 8.587858
176.240000 9.397659
176.260000 10.025860
176.280000 10.758100
176.300000 11.385890
176.320000 11.890750
176.340000 12.508860
176.360000 13.059530
176.380000 13.647540
176.400000 14.189340
176.420000 14.812840
176.440000 15.367360
176.460000 15.867310
176.480000 16.359290
176.500000 16.792230
176.520000 17.158160
176.540000 17.592500
176.560000 18.009170
176.580000 18.376770
176.600000 18.925140
176.620000 19.308210
176.640000 19.817420
176.660000 20.156050
176.680000 20.282270
176.700000 20.525760
176.720000 20.524550
176.740000 20.442930
176.760000 20.405990
176.780000 20.259100
176.800000 20.133210
176.820000 19.951040
176.840000 19.834280
176.860000 19.828990
176.880000 19.780080
176.900000 19.619680
176.920000 19.626420
176.940000 19.621220
176.960000 19.286700
176.980000 18.807380
177.000000 18.229200
177.020000 17.623710
177.040000 16.784880
177.060000 16.023460
177.080000 15.391690
177.100000 14.788240
177.120000 14.281940
177.140000 13.770690
177.160000 13.428920
177.180000 13.186690
177.200000 12.775440
177.220000 12.414000
177.240000 12.059760
177.260000 11.608920
177.280000 11.252180
177.300000 10.904300
177.320000 10.479010
177.340000 10.173960
177.360000 9.802580
177.380000 9.470869
177.400000 9.140431
177.420000 8.612000
177.440000 8.218464
177.460000 7.779892
177.480000 7.369874
177.500000 7.000311
177.520000 6.566935
177.540000 6.344169
177.560000 6.058402
177.580000 5.673100
177.600000 5.360475
177.620000 4.995645
177.640000 4.700538
177.660000 4.412713
177.680000 4.090411
177.700000 3.831083
177.720000 3.615277
177.740000 3.387596
177.760000 3.133645
177.780000 2.766393
177.800000 2.400233
177.820000 2.057529
177.840000 1.627961
177.860000 1.207048
177.880000 0.687467
177.900000 0.240774
177.920000 -0.170645
177.940000 -0.669851
177.960000 -1.253609
177.980000 -1.835477
178.000000 -2.365771
178.020000 -2.976177
178.040000 -3.703120
178.060000 -4.344572
178.080000 -4.937783
178.100000 -5.526134
178.120000 -6.139776
178.140000 -6.698216
178.160000 -7.210669
178.180000 -7.748973
178.200000 -8.289839
178.220000 -8.862590
178.240000 -9.351686
178.260000 -9.867864
178.280000 -10.455150
178.300000 -10.866300
178.320000 -11.376000
178.340000 -11.884500
178.360000 -12.301540
178.380000 -12.761240
178.400000 -13.189450
178.420000 -13.723790
178.440000 -14.229530
178.460000 -14.658640
178.480000 -15.173890
178.500000 -15.749820
178.520000 -16.236370
178.540000 -16.773820
178.560000 -17.429080
178.580000 -18.026070
178.600000 -18.268640
178.620000 -18.337870
178.640000 -18.566730
178.660000 -18.678910
178.680000 -18.584830
178.700000 -18.419640
178.720000 -18.284980
178.740000 -18.158280
178.760000 -18.006890
178.780000 -17.773140
178.800000 -17.560750
178.820000 -17.028220
178.840000 -16.557050
178.860000 -16.206260
178.880000 -15.432860
178.900000 -14.679920
178.920000 -14.000850
178.940000 -13.407920
178.960000 -12.967900
178.980000 -12.459730
179.000000 -12.015810
179.020000 -11.607820
179.040000 -10.999320
179.060000 -10.421710
179.080000 -9.939029
179.100000 -9.330891
179.120000 -8.716969
179.140000 -8.306825
179.160000 -7.887004
179.180000 -7.424711
179.200000 -7.064600
179.220000 -6.759495
179.240000 -6.364754
179.260000 -5.984759
179.280000 -5.654237
179.300000 -5.296703
179.320000 -4.931916
179.340000 -4.587881
179.360000 -4.392842
179.380000 -4.097693
179.400000 -3.788135
179.420000 -3.587116
179.440000 -3.314079
179.460000 -3.003246
179.480000 -2.768452
179.500000 -2.523547
179.520000 -2.305934
179.540000 -2.040388
179.560000 -1.872054
179.580000 -1.705974
179.600000 -1.436381
179.620000 -1.154718
179.640000 -0.913524
179.660000 -0.616876
179.680000 -0.280011
179.700000 -0.064233
179.720000 0.185083
179.740000 0.490776
179.760000 0.768617
179.780000 0.986971
179.800000 1.428988
179.820000 1.826949
179.840000 2.246812
179.860000 2.661368
179.880000 3.201982
179.900000 3.657819
179.920000 4.143568
179.940000 4.688649
179.960000 5.288777
179.980000 5.964496